File: src/acoustic_resonators/asops/processed_data/xrd.csv
2theta,intensity,T
10.0,3.06312e-07,60.0
10.12,4.901e-07,60.0
10.24,7.96412e-07,60.0
10.36,2.4505e-07,60.0
10.48,1.83787e-07,60.0
10.6,3.67575e-07,60.0
10.72,4.28837e-07,60.0
10.84,2.4505e-07,60.0
10.96,3.06312e-07,60.0
11.08,4.28837e-07,60.0
11.2,3.67575e-07,60.0
11.32,5.51362e-07,60.0
11.44,3.67575e-07,60.0
11.56,3.67575e-07,60.0
11.68,1.22525e-07,60.0
11.8,4.28837e-07,60.0
11.92,5.51362e-07,60.0
12.04,3.67575e-07,60.0
12.16,4.901e-07,60.0
12.28,1.83787e-07,60.0
12.4,3.06312e-07,60.0
12.52,3.06312e-07,60.0
12.64,3.67575e-07,60.0
12.76,3.67575e-07,60.0
12.88,2.4505e-07,60.0
13.0,2.4505e-07,60.0
13.12,2.4505e-07,60.0
13.24,3.06312e-07,60.0
13.36,3.67575e-07,60.0
13.48,4.901e-07,60.0
13.6,4.901e-07,60.0
13.72,1.22525e-07,60.0
13.84,4.901e-07,60.0
13.96,2.4505e-07,60.0
14.08,5.51362e-07,60.0
14.2,6.12625e-07,60.0
14.32,1.83787e-07,60.0
14.44,4.901e-07,60.0
14.56,2.4505e-07,60.0
14.68,4.901e-07,60.0
14.8,2.4505e-07,60.0
14.92,4.28837e-07,60.0
15.04,6.12625e-07,60.0
15.16,2.4505e-07,60.0
15.28,4.901e-07,60.0
15.4,1.22525e-07,60.0
15.52,2.4505e-07,60.0
15.64,1.22525e-07,60.0
15.76,4.901e-07,60.0
15.88,5.51362e-07,60.0
16.0,4.901e-07,60.0
16.12,3.67575e-07,60.0
16.24,4.28837e-07,60.0
16.36,1.22525e-07,60.0
16.48,3.06312e-07,60.0
16.6,1.22525e-07,60.0
16.72,6.73887e-07,60.0
16.84,3.67575e-07,60.0
16.96,1.83787e-07,60.0
17.08,1.83787e-07,60.0
17.2,1.83787e-07,60.0
17.32,3.06312e-07,60.0
17.44,4.28837e-07,60.0
17.56,3.67575e-07,60.0
17.68,3.67575e-07,60.0
17.8,2.4505e-07,60.0
17.92,4.28837e-07,60.0
18.04,4.901e-07,60.0
18.16,2.4505e-07,60.0
18.28,1.83787e-07,60.0
18.4,3.67575e-07,60.0
18.52,2.4505e-07,60.0
18.64,2.4505e-07,60.0
18.76,4.28837e-07,60.0
18.88,4.28837e-07,60.0
19.0,2.4505e-07,60.0
19.12,3.06312e-07,60.0
19.24,1.22525e-07,60.0
19.36,5.51362e-07,60.0
19.48,4.901e-07,60.0
19.6,4.28837e-07,60.0
19.72,1.83787e-07,60.0
19.84,3.67575e-07,60.0
19.96,3.06312e-07,60.0
20.08,2.4505e-07,60.0
20.2,1.83787e-07,60.0
20.32,4.901e-07,60.0
20.44,8.57675e-07,60.0
20.56,3.67575e-07,60.0
20.68,8.57675e-07,60.0
20.8,6.73887e-07,60.0
20.92,3.67575e-07,60.0
21.04,4.28837e-07,60.0
21.16,1.28651e-06,60.0
21.28,6.12625e-07,60.0
21.4,6.12625e-07,60.0
21.52,1.53156e-06,60.0
21.64,1.34777e-06,60.0
21.76,1.89914e-06,60.0
21.88,2.02166e-06,60.0
22.0,2.9406e-06,60.0
22.12,3.61449e-06,60.0
22.24,5.51362e-06,60.0
22.36,1.3294e-05,60.0
22.48,3.59611e-05,60.0
22.6,6.60409e-05,60.0
22.72,0.0214487,60.0
22.84,0.000103043,60.0
22.96,1.65409e-05,60.0
23.08,5.45236e-06,60.0
23.2,3.67575e-06,60.0
23.32,2.81807e-06,60.0
23.44,1.34777e-06,60.0
23.56,8.57675e-07,60.0
23.68,9.18937e-07,60.0
23.8,6.73887e-07,60.0
23.92,3.67575e-07,60.0
24.04,4.901e-07,60.0
24.16,3.67575e-07,60.0
24.28,6.12625e-08,60.0
24.4,4.28837e-07,60.0
24.52,2.4505e-07,60.0
24.64,1.22525e-07,60.0
24.76,2.4505e-07,60.0
24.88,1.22525e-07,60.0
25.0,4.28837e-07,60.0
25.12,2.4505e-07,60.0
25.24,2.4505e-07,60.0
25.36,3.06312e-07,60.0
25.48,6.12625e-08,60.0
25.6,2.4505e-07,60.0
25.72,2.4505e-07,60.0
25.84,2.4505e-07,60.0
25.96,3.06312e-07,60.0
26.08,1.22525e-07,60.0
26.2,1.22525e-07,60.0
26.32,2.4505e-07,60.0
26.44,6.12625e-08,60.0
26.56,2.4505e-07,60.0
26.68,3.06312e-07,60.0
26.8,3.06312e-07,60.0
26.92,1.83787e-07,60.0
27.04,4.28837e-07,60.0
27.16,1.83787e-07,60.0
27.28,1.83787e-07,60.0
27.4,6.12625e-08,60.0
27.52,1.83787e-07,60.0
27.64,4.28837e-07,60.0
27.76,3.06312e-07,60.0
27.88,2.4505e-07,60.0
28.0,3.06312e-07,60.0
28.12,3.67575e-07,60.0
28.24,1.83787e-07,60.0
28.36,2.4505e-07,60.0
28.48,4.28837e-07,60.0
28.6,1.22525e-07,60.0
28.72,3.67575e-07,60.0
28.84,2.4505e-07,60.0
28.96,2.4505e-07,60.0
29.08,1.83787e-07,60.0
29.2,3.67575e-07,60.0
29.32,3.06312e-07,60.0
29.44,3.06312e-07,60.0
29.56,1.83787e-07,60.0
29.68,1.83787e-07,60.0
29.8,1.22525e-07,60.0
29.92,1.83787e-07,60.0
30.04,6.12625e-08,60.0
30.16,1.22525e-07,60.0
30.28,1.22525e-07,60.0
30.4,3.67575e-07,60.0
30.52,5.51362e-07,60.0
30.64,6.12625e-07,60.0
30.76,2.4505e-07,60.0
30.88,3.06312e-07,60.0
31.0,1.22525e-07,60.0
31.12,1.22525e-07,60.0
31.24,2.4505e-07,60.0
31.36,6.73887e-07,60.0
31.48,1.22525e-07,60.0
31.6,0.0,60.0
31.72,4.901e-07,60.0
31.84,3.06312e-07,60.0
31.96,2.4505e-07,60.0
32.08,1.83787e-07,60.0
32.2,2.4505e-07,60.0
32.32,1.22525e-07,60.0
32.44,2.4505e-07,60.0
32.56,2.4505e-07,60.0
32.68,1.83787e-07,60.0
32.8,6.12625e-08,60.0
32.92,1.22525e-07,60.0
33.04,1.83787e-07,60.0
33.16,6.73887e-07,60.0
33.28,4.901e-07,60.0
33.4,1.83787e-07,60.0
33.52,1.22525e-07,60.0
33.64,1.83787e-07,60.0
33.76,2.4505e-07,60.0
33.88,2.4505e-07,60.0
34.0,2.4505e-07,60.0
34.12,2.4505e-07,60.0
34.24,2.4505e-07,60.0
34.36,2.4505e-07,60.0
34.48,1.83787e-07,60.0
34.6,1.83787e-07,60.0
34.72,6.12625e-08,60.0
34.84,3.06312e-07,60.0
34.96,2.4505e-07,60.0
35.08,2.4505e-07,60.0
35.2,3.06312e-07,60.0
35.32,1.83787e-07,60.0
35.44,5.51362e-07,60.0
35.56,3.06312e-07,60.0
35.68,3.06312e-07,60.0
35.8,3.06312e-07,60.0
35.92,2.4505e-07,60.0
36.04,4.28837e-07,60.0
36.16,4.28837e-07,60.0
36.28,1.22525e-07,60.0
36.4,3.06312e-07,60.0
36.52,1.22525e-07,60.0
36.64,1.22525e-07,60.0
36.76,4.901e-07,60.0
36.88,1.83787e-07,60.0
37.0,6.12625e-08,60.0
37.12,1.83787e-07,60.0
37.24,2.4505e-07,60.0
37.36,1.83787e-07,60.0
37.48,1.83787e-07,60.0
37.6,3.67575e-07,60.0
37.72,6.73887e-07,60.0
37.84,4.28837e-07,60.0
37.96,1.22525e-07,60.0
38.08,1.83787e-07,60.0
38.2,1.22525e-07,60.0
38.32,3.06312e-07,60.0
38.44,1.22525e-07,60.0
38.56,3.06312e-07,60.0
38.68,3.06312e-07,60.0
38.8,4.28837e-07,60.0
38.92,1.22525e-07,60.0
39.04,3.06312e-07,60.0
39.16,5.51362e-07,60.0
39.28,3.06312e-07,60.0
39.4,2.4505e-07,60.0
39.52,1.83787e-07,60.0
39.64,4.901e-07,60.0
39.76,7.96412e-07,60.0
39.88,4.28837e-07,60.0
40.0,3.67575e-07,60.0
40.12,3.06312e-07,60.0
40.24,3.67575e-07,60.0
40.36,6.12625e-07,60.0
40.48,3.06312e-07,60.0
40.6,4.28837e-07,60.0
40.72,2.4505e-07,60.0
40.84,5.51362e-07,60.0
40.96,7.3515e-07,60.0
41.08,5.51362e-07,60.0
41.2,6.12625e-07,60.0
41.32,3.06312e-07,60.0
41.44,6.12625e-07,60.0
41.56,6.73887e-07,60.0
41.68,6.12625e-07,60.0
41.8,6.73887e-07,60.0
41.92,6.12625e-07,60.0
42.04,9.18937e-07,60.0
42.16,7.96412e-07,60.0
42.28,1.10272e-06,60.0
42.4,7.96412e-07,60.0
42.52,1.28651e-06,60.0
42.64,8.57675e-07,60.0
42.76,7.96412e-07,60.0
42.88,1.10272e-06,60.0
43.0,1.10272e-06,60.0
43.12,1.04146e-06,60.0
43.24,1.65409e-06,60.0
43.36,1.34777e-06,60.0
43.48,1.4703e-06,60.0
43.6,2.63429e-06,60.0
43.72,2.14419e-06,60.0
43.84,2.02166e-06,60.0
43.96,2.51176e-06,60.0
44.08,2.32797e-06,60.0
44.2,2.9406e-06,60.0
44.32,3.12439e-06,60.0
44.44,2.81807e-06,60.0
44.56,3.36944e-06,60.0
44.68,4.34964e-06,60.0
44.8,4.901e-06,60.0
44.92,5.3911e-06,60.0
45.04,6.12625e-06,60.0
45.16,6.92266e-06,60.0
45.28,8.94432e-06,60.0
45.4,1.1211e-05,60.0
45.52,1.80112e-05,60.0
45.64,2.53014e-05,60.0
45.76,5.20731e-05,60.0
45.88,0.000187157,60.0
46.0,0.000239904,60.0
46.12,0.000160691,60.0
46.24,0.000215338,60.0
46.36,0.00105819,60.0
46.48,0.108517,60.0
46.6,0.00049304,60.0
46.72,0.000130795,60.0
46.84,6.17526e-05,60.0
46.96,3.48583e-05,60.0
47.08,2.67104e-05,60.0
47.2,1.56832e-05,60.0
47.32,1.12723e-05,60.0
47.44,7.78033e-06,60.0
47.56,7.65781e-06,60.0
47.68,5.63615e-06,60.0
47.8,4.65595e-06,60.0
47.92,4.04332e-06,60.0
48.04,3.12439e-06,60.0
48.16,2.9406e-06,60.0
48.28,2.08292e-06,60.0
48.4,2.32797e-06,60.0
48.52,2.14419e-06,60.0
48.64,1.89914e-06,60.0
48.76,1.22525e-06,60.0
48.88,1.40904e-06,60.0
49.0,1.10272e-06,60.0
49.12,9.18937e-07,60.0
49.24,9.18937e-07,60.0
49.36,1.04146e-06,60.0
49.48,1.22525e-06,60.0
49.6,1.04146e-06,60.0
49.72,8.57675e-07,60.0
49.84,4.901e-07,60.0
49.96,2.4505e-07,60.0
50.08,6.12625e-07,60.0
50.2,7.3515e-07,60.0
50.32,5.51362e-07,60.0
50.44,2.4505e-07,60.0
50.56,1.22525e-07,60.0
50.68,2.4505e-07,60.0
50.8,4.901e-07,60.0
50.92,5.51362e-07,60.0
51.04,1.83787e-07,60.0
51.16,1.83787e-07,60.0
51.28,6.12625e-07,60.0
51.4,3.67575e-07,60.0
51.52,6.73887e-07,60.0
51.64,4.901e-07,60.0
51.76,3.67575e-07,60.0
51.88,3.06312e-07,60.0
52.0,3.06312e-07,60.0
52.12,2.4505e-07,60.0
52.24,2.4505e-07,60.0
52.36,4.28837e-07,60.0
52.48,1.22525e-07,60.0
52.6,2.4505e-07,60.0
52.72,1.83787e-07,60.0
52.84,1.83787e-07,60.0
52.96,3.67575e-07,60.0
53.08,2.4505e-07,60.0
53.2,6.12625e-08,60.0
53.32,6.12625e-08,60.0
53.44,3.06312e-07,60.0
53.56,3.06312e-07,60.0
53.68,3.06312e-07,60.0
53.8,1.22525e-07,60.0
53.92,2.4505e-07,60.0
54.04,1.22525e-07,60.0
54.16,1.83787e-07,60.0
54.28,1.83787e-07,60.0
54.4,1.83787e-07,60.0
54.52,1.22525e-07,60.0
54.64,6.12625e-08,60.0
54.76,3.67575e-07,60.0
54.88,1.22525e-07,60.0
55.0,1.83787e-07,60.0
55.12,3.06312e-07,60.0
55.24,1.83787e-07,60.0
55.36,0.0,60.0
55.48,0.0,60.0
55.6,6.12625e-08,60.0
55.72,1.83787e-07,60.0
55.84,6.12625e-08,60.0
55.96,0.0,60.0
56.08,1.22525e-07,60.0
56.2,1.83787e-07,60.0
56.32,1.22525e-07,60.0
56.44,6.12625e-08,60.0
56.56,6.12625e-08,60.0
56.68,2.4505e-07,60.0
56.8,3.06312e-07,60.0
56.92,1.83787e-07,60.0
57.04,1.83787e-07,60.0
57.16,6.12625e-08,60.0
57.28,0.0,60.0
57.4,6.12625e-08,60.0
57.52,2.4505e-07,60.0
57.64,1.22525e-07,60.0
57.76,6.12625e-08,60.0
57.88,6.12625e-08,60.0
58.0,0.0,60.0
58.12,6.12625e-08,60.0
58.24,1.83787e-07,60.0
58.36,3.06312e-07,60.0
58.48,1.22525e-07,60.0
58.6,0.0,60.0
58.72,6.12625e-08,60.0
58.84,1.22525e-07,60.0
58.96,6.12625e-08,60.0
59.08,1.22525e-07,60.0
59.2,6.12625e-08,60.0
59.32,1.83787e-07,60.0
59.44,0.0,60.0
59.56,6.12625e-08,60.0
59.68,0.0,60.0
59.8,1.22525e-07,60.0
59.92,3.06312e-07,60.0
10.02,2.37936e-07,350.0
10.14,2.9742e-07,350.0
10.26,4.75871e-07,350.0
10.38,4.16387e-07,350.0
10.5,5.94839e-07,350.0
10.62,5.94839e-08,350.0
10.74,3.56904e-07,350.0
10.86,4.75871e-07,350.0
10.98,3.56904e-07,350.0
11.1,2.9742e-07,350.0
11.22,2.9742e-07,350.0
11.34,2.37936e-07,350.0
11.46,5.35355e-07,350.0
11.58,2.9742e-07,350.0
11.7,5.35355e-07,350.0
11.82,4.75871e-07,350.0
11.94,4.75871e-07,350.0
12.06,2.9742e-07,350.0
12.18,2.9742e-07,350.0
12.3,4.16387e-07,350.0
12.42,4.16387e-07,350.0
12.54,2.9742e-07,350.0
12.66,3.56904e-07,350.0
12.78,5.94839e-08,350.0
12.9,4.75871e-07,350.0
13.02,2.37936e-07,350.0
13.14,2.9742e-07,350.0
13.26,4.16387e-07,350.0
13.38,1.18968e-07,350.0
13.5,4.75871e-07,350.0
13.62,3.56904e-07,350.0
13.74,1.78452e-07,350.0
13.86,1.78452e-07,350.0
13.98,4.16387e-07,350.0
14.1,3.56904e-07,350.0
14.22,3.56904e-07,350.0
14.34,2.9742e-07,350.0
14.46,2.9742e-07,350.0
14.58,4.16387e-07,350.0
14.7,3.56904e-07,350.0
14.82,2.37936e-07,350.0
14.94,2.9742e-07,350.0
15.06,3.56904e-07,350.0
15.18,0.0,350.0
15.3,3.56904e-07,350.0
15.42,4.16387e-07,350.0
15.54,1.18968e-07,350.0
15.66,2.37936e-07,350.0
15.78,1.18968e-07,350.0
15.9,3.56904e-07,350.0
16.02,4.75871e-07,350.0
16.14,1.78452e-07,350.0
16.26,1.18968e-07,350.0
16.38,1.78452e-07,350.0
16.5,2.9742e-07,350.0
16.62,2.37936e-07,350.0
16.74,1.78452e-07,350.0
16.86,2.37936e-07,350.0
16.98,2.9742e-07,350.0
17.1,5.94839e-08,350.0
17.22,4.75871e-07,350.0
17.34,3.56904e-07,350.0
17.46,4.16387e-07,350.0
17.58,2.9742e-07,350.0
17.7,4.75871e-07,350.0
17.82,2.9742e-07,350.0
17.94,2.37936e-07,350.0
18.06,5.94839e-08,350.0
18.18,1.18968e-07,350.0
18.3,4.75871e-07,350.0
18.42,4.16387e-07,350.0
18.54,2.37936e-07,350.0
18.66,1.78452e-07,350.0
18.78,4.16387e-07,350.0
18.9,8.32775e-07,350.0
19.02,2.9742e-07,350.0
19.14,2.9742e-07,350.0
19.26,2.37936e-07,350.0
19.38,2.9742e-07,350.0
19.5,2.37936e-07,350.0
19.62,1.18968e-07,350.0
19.74,3.56904e-07,350.0
19.86,5.94839e-07,350.0
19.98,2.9742e-07,350.0
20.1,6.54323e-07,350.0
20.22,5.94839e-07,350.0
20.34,7.73291e-07,350.0
20.46,7.13807e-07,350.0
20.58,6.54323e-07,350.0
20.7,5.35355e-07,350.0
20.82,3.56904e-07,350.0
20.94,5.35355e-07,350.0
21.06,8.32775e-07,350.0
21.18,2.9742e-07,350.0
21.3,1.01123e-06,350.0
21.42,5.94839e-07,350.0
21.54,1.07071e-06,350.0
21.66,1.4871e-06,350.0
21.78,1.30865e-06,350.0
21.9,2.02245e-06,350.0
22.02,1.96297e-06,350.0
22.14,3.21213e-06,350.0
22.26,4.52078e-06,350.0
22.38,1.13019e-05,350.0
22.5,3.15265e-05,350.0
22.62,6.38857e-05,350.0
22.74,0.114851,350.0
22.86,6.73358e-05,350.0
22.98,1.33839e-05,350.0
23.1,4.87768e-06,350.0
23.22,3.21213e-06,350.0
23.34,2.31987e-06,350.0
23.46,1.18968e-06,350.0
23.58,8.92259e-07,350.0
23.7,6.54323e-07,350.0
23.82,8.92259e-07,350.0
23.94,2.9742e-07,350.0
24.06,4.16387e-07,350.0
24.18,4.75871e-07,350.0
24.3,3.56904e-07,350.0
24.42,1.78452e-07,350.0
24.54,1.18968e-07,350.0
24.66,2.9742e-07,350.0
24.78,1.18968e-07,350.0
24.9,2.37936e-07,350.0
25.02,1.78452e-07,350.0
25.14,1.18968e-07,350.0
25.26,5.94839e-08,350.0
25.38,3.56904e-07,350.0
25.5,1.18968e-07,350.0
25.62,3.56904e-07,350.0
25.74,1.78452e-07,350.0
25.86,2.9742e-07,350.0
25.98,2.9742e-07,350.0
26.1,1.78452e-07,350.0
26.22,2.37936e-07,350.0
26.34,4.75871e-07,350.0
26.46,1.78452e-07,350.0
26.58,1.18968e-07,350.0
26.7,0.0,350.0
26.82,2.9742e-07,350.0
26.94,1.78452e-07,350.0
27.06,5.94839e-08,350.0
27.18,1.78452e-07,350.0
27.3,5.35355e-07,350.0
27.42,5.94839e-08,350.0
27.54,1.78452e-07,350.0
27.66,0.0,350.0
27.78,1.78452e-07,350.0
27.9,5.94839e-08,350.0
28.02,1.18968e-07,350.0
28.14,5.94839e-07,350.0
28.26,2.9742e-07,350.0
28.38,4.75871e-07,350.0
28.5,2.37936e-07,350.0
28.62,5.94839e-08,350.0
28.74,2.9742e-07,350.0
28.86,2.37936e-07,350.0
28.98,2.37936e-07,350.0
29.1,2.9742e-07,350.0
29.22,5.94839e-08,350.0
29.34,4.16387e-07,350.0
29.46,1.78452e-07,350.0
29.58,1.18968e-07,350.0
29.7,2.37936e-07,350.0
29.82,2.9742e-07,350.0
29.94,5.94839e-08,350.0
30.06,1.18968e-07,350.0
30.18,4.16387e-07,350.0
30.3,2.37936e-07,350.0
30.42,1.18968e-07,350.0
30.54,1.18968e-07,350.0
30.66,2.37936e-07,350.0
30.78,5.94839e-08,350.0
30.9,1.78452e-07,350.0
31.02,5.94839e-08,350.0
31.14,1.18968e-07,350.0
31.26,5.94839e-08,350.0
31.38,2.9742e-07,350.0
31.5,1.18968e-07,350.0
31.62,2.9742e-07,350.0
31.74,2.37936e-07,350.0
31.86,1.18968e-07,350.0
31.98,2.9742e-07,350.0
32.1,1.18968e-07,350.0
32.22,4.75871e-07,350.0
32.34,4.16387e-07,350.0
32.46,3.56904e-07,350.0
32.58,1.18968e-07,350.0
32.7,5.94839e-08,350.0
32.82,2.37936e-07,350.0
32.94,1.18968e-07,350.0
33.06,1.78452e-07,350.0
33.18,2.37936e-07,350.0
33.3,1.18968e-07,350.0
33.42,1.78452e-07,350.0
33.54,2.37936e-07,350.0
33.66,2.9742e-07,350.0
33.78,5.94839e-08,350.0
33.9,2.37936e-07,350.0
34.02,2.37936e-07,350.0
34.14,1.18968e-07,350.0
34.26,5.94839e-08,350.0
34.38,2.9742e-07,350.0
34.5,1.78452e-07,350.0
34.62,2.37936e-07,350.0
34.74,5.94839e-08,350.0
34.86,1.18968e-07,350.0
34.98,1.78452e-07,350.0
35.1,2.37936e-07,350.0
35.22,2.9742e-07,350.0
35.34,1.18968e-07,350.0
35.46,2.37936e-07,350.0
35.58,1.18968e-07,350.0
35.7,1.18968e-07,350.0
35.82,1.18968e-07,350.0
35.94,4.16387e-07,350.0
36.06,5.94839e-08,350.0
36.18,4.16387e-07,350.0
36.3,2.9742e-07,350.0
36.42,1.18968e-07,350.0
36.54,0.0,350.0
36.66,1.18968e-07,350.0
36.78,2.37936e-07,350.0
36.9,2.37936e-07,350.0
37.02,1.78452e-07,350.0
37.14,3.56904e-07,350.0
37.26,5.94839e-08,350.0
37.38,1.18968e-07,350.0
37.5,1.78452e-07,350.0
37.62,1.78452e-07,350.0
37.74,3.56904e-07,350.0
37.86,2.9742e-07,350.0
37.98,4.16387e-07,350.0
38.1,2.9742e-07,350.0
38.22,3.56904e-07,350.0
38.34,1.78452e-07,350.0
38.46,2.9742e-07,350.0
38.58,3.56904e-07,350.0
38.7,2.9742e-07,350.0
38.82,2.37936e-07,350.0
38.94,2.37936e-07,350.0
39.06,2.37936e-07,350.0
39.18,1.78452e-07,350.0
39.3,3.56904e-07,350.0
39.42,3.56904e-07,350.0
39.54,5.94839e-07,350.0
39.66,1.18968e-07,350.0
39.78,4.75871e-07,350.0
39.9,2.9742e-07,350.0
40.02,3.56904e-07,350.0
40.14,5.94839e-08,350.0
40.26,2.9742e-07,350.0
40.38,3.56904e-07,350.0
40.5,2.9742e-07,350.0
40.62,3.56904e-07,350.0
40.74,3.56904e-07,350.0
40.86,2.9742e-07,350.0
40.98,4.75871e-07,350.0
41.1,5.94839e-07,350.0
41.22,4.16387e-07,350.0
41.34,5.94839e-07,350.0
41.46,3.56904e-07,350.0
41.58,4.16387e-07,350.0
41.7,7.13807e-07,350.0
41.82,4.75871e-07,350.0
41.94,7.73291e-07,350.0
42.06,7.13807e-07,350.0
42.18,4.75871e-07,350.0
42.3,7.13807e-07,350.0
42.42,6.54323e-07,350.0
42.54,6.54323e-07,350.0
42.66,1.01123e-06,350.0
42.78,1.07071e-06,350.0
42.9,1.07071e-06,350.0
43.02,1.42761e-06,350.0
43.14,1.30865e-06,350.0
43.26,1.13019e-06,350.0
43.38,1.42761e-06,350.0
43.5,1.54658e-06,350.0
43.62,1.78452e-06,350.0
43.74,1.72503e-06,350.0
43.86,1.24916e-06,350.0
43.98,1.96297e-06,350.0
44.1,2.26039e-06,350.0
44.22,2.20091e-06,350.0
44.34,2.08194e-06,350.0
44.46,2.85523e-06,350.0
44.58,3.15265e-06,350.0
44.7,4.58026e-06,350.0
44.82,4.8182e-06,350.0
44.94,5.65097e-06,350.0
45.06,7.19755e-06,350.0
45.18,6.48375e-06,350.0
45.3,8.1493e-06,350.0
45.42,1.08856e-05,350.0
45.54,1.63581e-05,350.0
45.66,2.29608e-05,350.0
45.78,4.46724e-05,350.0
45.9,0.000131459,350.0
46.02,0.000170719,350.0
46.14,0.00014639,350.0
46.26,0.000263514,350.0
46.38,0.00184031,350.0
46.5,0.01137,350.0
46.62,0.000361067,350.0
46.74,0.000104989,350.0
46.86,5.36545e-05,350.0
46.98,3.28351e-05,350.0
47.1,2.2128e-05,350.0
47.22,1.55253e-05,350.0
47.34,1.21347e-05,350.0
47.46,8.56568e-06,350.0
47.58,6.95962e-06,350.0
47.7,6.06736e-06,350.0
47.82,3.688e-06,350.0
47.94,3.27162e-06,350.0
48.06,3.27162e-06,350.0
48.18,2.43884e-06,350.0
48.3,2.9742e-06,350.0
48.42,1.60607e-06,350.0
48.54,1.66555e-06,350.0
48.66,8.92259e-07,350.0
48.78,1.4871e-06,350.0
48.9,1.36813e-06,350.0
49.02,1.18968e-06,350.0
49.14,1.13019e-06,350.0
49.26,1.07071e-06,350.0
49.38,1.18968e-06,350.0
49.5,4.16387e-07,350.0
49.62,7.13807e-07,350.0
49.74,8.32775e-07,350.0
49.86,8.92259e-07,350.0
49.98,6.54323e-07,350.0
50.1,5.94839e-07,350.0
50.22,5.35355e-07,350.0
50.34,2.9742e-07,350.0
50.46,4.16387e-07,350.0
50.58,2.37936e-07,350.0
50.7,9.51743e-07,350.0
50.82,4.16387e-07,350.0
50.94,4.16387e-07,350.0
51.06,4.16387e-07,350.0
51.18,1.18968e-07,350.0
51.3,2.37936e-07,350.0
51.42,5.35355e-07,350.0
51.54,2.37936e-07,350.0
51.66,5.94839e-08,350.0
51.78,2.37936e-07,350.0
51.9,1.18968e-07,350.0
52.02,5.94839e-08,350.0
52.14,2.37936e-07,350.0
52.26,2.9742e-07,350.0
52.38,1.18968e-07,350.0
52.5,2.9742e-07,350.0
52.62,5.35355e-07,350.0
52.74,1.78452e-07,350.0
52.86,1.78452e-07,350.0
52.98,1.78452e-07,350.0
53.1,3.56904e-07,350.0
53.22,2.9742e-07,350.0
53.34,5.94839e-08,350.0
53.46,1.78452e-07,350.0
53.58,2.37936e-07,350.0
53.7,1.78452e-07,350.0
53.82,2.9742e-07,350.0
53.94,1.18968e-07,350.0
54.06,3.56904e-07,350.0
54.18,1.18968e-07,350.0
54.3,1.18968e-07,350.0
54.42,1.78452e-07,350.0
54.54,0.0,350.0
54.66,3.56904e-07,350.0
54.78,1.18968e-07,350.0
54.9,0.0,350.0
55.02,5.94839e-08,350.0
55.14,5.94839e-08,350.0
55.26,2.9742e-07,350.0
55.38,1.78452e-07,350.0
55.5,5.94839e-08,350.0
55.62,1.78452e-07,350.0
55.74,0.0,350.0
55.86,0.0,350.0
55.98,1.78452e-07,350.0
56.1,5.94839e-08,350.0
56.22,3.56904e-07,350.0
56.34,2.37936e-07,350.0
56.46,0.0,350.0
56.58,5.94839e-08,350.0
56.7,1.18968e-07,350.0
56.82,1.78452e-07,350.0
56.94,1.78452e-07,350.0
57.06,2.9742e-07,350.0
57.18,1.78452e-07,350.0
57.3,1.78452e-07,350.0
57.42,1.78452e-07,350.0
57.54,1.18968e-07,350.0
57.66,2.37936e-07,350.0
57.78,1.18968e-07,350.0
57.9,1.18968e-07,350.0
58.02,0.0,350.0
58.14,5.94839e-08,350.0
58.26,5.94839e-08,350.0
58.38,0.0,350.0
58.5,1.18968e-07,350.0
58.62,1.78452e-07,350.0
58.74,1.18968e-07,350.0
58.86,5.94839e-08,350.0
58.98,1.78452e-07,350.0
59.1,5.94839e-08,350.0
59.22,2.37936e-07,350.0
59.34,3.56904e-07,350.0
59.46,2.37936e-07,350.0
59.58,1.78452e-07,350.0
59.7,1.18968e-07,350.0
59.82,5.94839e-08,350.0
59.94,0.0,350.0
10.04,4.52967e-07,550.0
10.16,6.47096e-07,550.0
10.28,3.23548e-07,550.0
10.4,2.58838e-07,550.0
10.52,1.29419e-07,550.0
10.64,2.58838e-07,550.0
10.76,4.52967e-07,550.0
10.88,3.23548e-07,550.0
11.0,3.88257e-07,550.0
11.12,7.11805e-07,550.0
11.24,2.58838e-07,550.0
11.36,3.23548e-07,550.0
11.48,4.52967e-07,550.0
11.6,1.94129e-07,550.0
11.72,5.82386e-07,550.0
11.84,6.47096e-07,550.0
11.96,3.23548e-07,550.0
12.08,3.23548e-07,550.0
12.2,3.88257e-07,550.0
12.32,1.94129e-07,550.0
12.44,5.82386e-07,550.0
12.56,4.52967e-07,550.0
12.68,3.88257e-07,550.0
12.8,2.58838e-07,550.0
12.92,3.23548e-07,550.0
13.04,1.94129e-07,550.0
13.16,6.47096e-08,550.0
13.28,2.58838e-07,550.0
13.4,3.88257e-07,550.0
13.52,4.52967e-07,550.0
13.64,3.88257e-07,550.0
13.76,3.23548e-07,550.0
13.88,5.82386e-07,550.0
14.0,3.88257e-07,550.0
14.12,3.88257e-07,550.0
14.24,5.17676e-07,550.0
14.36,2.58838e-07,550.0
14.48,2.58838e-07,550.0
14.6,1.29419e-07,550.0
14.72,3.88257e-07,550.0
14.84,2.58838e-07,550.0
14.96,4.52967e-07,550.0
15.08,2.58838e-07,550.0
15.2,3.23548e-07,550.0
15.32,3.88257e-07,550.0
15.44,1.94129e-07,550.0
15.56,3.23548e-07,550.0
15.68,2.58838e-07,550.0
15.8,1.94129e-07,550.0
15.92,7.11805e-07,550.0
16.04,3.88257e-07,550.0
16.16,2.58838e-07,550.0
16.28,2.58838e-07,550.0
16.4,3.23548e-07,550.0
16.52,1.94129e-07,550.0
16.64,3.88257e-07,550.0
16.76,6.47096e-07,550.0
16.88,3.88257e-07,550.0
17.0,3.23548e-07,550.0
17.12,4.52967e-07,550.0
17.24,6.47096e-08,550.0
17.36,2.58838e-07,550.0
17.48,3.88257e-07,550.0
17.6,3.88257e-07,550.0
17.72,6.47096e-08,550.0
17.84,1.94129e-07,550.0
17.96,4.52967e-07,550.0
18.08,5.17676e-07,550.0
18.2,3.23548e-07,550.0
18.32,2.58838e-07,550.0
18.44,7.76515e-07,550.0
18.56,3.23548e-07,550.0
18.68,5.17676e-07,550.0
18.8,1.29419e-07,550.0
18.92,2.58838e-07,550.0
19.04,4.52967e-07,550.0
19.16,7.76515e-07,550.0
19.28,5.17676e-07,550.0
19.4,3.88257e-07,550.0
19.52,3.23548e-07,550.0
19.64,6.47096e-07,550.0
19.76,5.17676e-07,550.0
19.88,1.94129e-07,550.0
20.0,5.17676e-07,550.0
20.12,7.11805e-07,550.0
20.24,7.76515e-07,550.0
20.36,5.17676e-07,550.0
20.48,9.05934e-07,550.0
20.6,7.11805e-07,550.0
20.72,1.22948e-06,550.0
20.84,9.70643e-07,550.0
20.96,3.88257e-07,550.0
21.08,6.47096e-07,550.0
21.2,9.70643e-07,550.0
21.32,7.11805e-07,550.0
21.44,1.29419e-06,550.0
21.56,1.55303e-06,550.0
21.68,1.10006e-06,550.0
21.8,1.68245e-06,550.0
21.92,2.26483e-06,550.0
22.04,2.52367e-06,550.0
22.16,3.55903e-06,550.0
22.28,4.65909e-06,550.0
22.4,1.41714e-05,550.0
22.52,3.7661e-05,550.0
22.64,8.32812e-05,550.0
22.76,0.137242,550.0
22.88,5.84974e-05,550.0
23.0,1.29419e-05,550.0
23.12,5.69444e-06,550.0
23.24,2.91193e-06,550.0
23.36,1.87658e-06,550.0
23.48,2.006e-06,550.0
23.6,1.42361e-06,550.0
23.72,7.76515e-07,550.0
23.84,6.47096e-07,550.0
23.96,5.17676e-07,550.0
24.08,4.52967e-07,550.0
24.2,3.88257e-07,550.0
24.32,5.17676e-07,550.0
24.44,8.41224e-07,550.0
24.56,3.23548e-07,550.0
24.68,7.76515e-07,550.0
24.8,2.58838e-07,550.0
24.92,2.58838e-07,550.0
25.04,3.23548e-07,550.0
25.16,1.29419e-07,550.0
25.28,1.94129e-07,550.0
25.4,0.0,550.0
25.52,2.58838e-07,550.0
25.64,3.88257e-07,550.0
25.76,1.29419e-07,550.0
25.88,6.47096e-08,550.0
26.0,1.29419e-07,550.0
26.12,2.58838e-07,550.0
26.24,3.23548e-07,550.0
26.36,6.47096e-08,550.0
26.48,1.94129e-07,550.0
26.6,1.94129e-07,550.0
26.72,1.29419e-07,550.0
26.84,3.88257e-07,550.0
26.96,3.23548e-07,550.0
27.08,1.29419e-07,550.0
27.2,1.29419e-07,550.0
27.32,1.94129e-07,550.0
27.44,1.29419e-07,550.0
27.56,1.94129e-07,550.0
27.68,1.29419e-07,550.0
27.8,3.23548e-07,550.0
27.92,1.29419e-07,550.0
28.04,1.94129e-07,550.0
28.16,2.58838e-07,550.0
28.28,6.47096e-08,550.0
28.4,1.29419e-07,550.0
28.52,1.29419e-07,550.0
28.64,2.58838e-07,550.0
28.76,6.47096e-08,550.0
28.88,1.94129e-07,550.0
29.0,4.52967e-07,550.0
29.12,1.29419e-07,550.0
29.24,3.23548e-07,550.0
29.36,3.23548e-07,550.0
29.48,1.29419e-07,550.0
29.6,3.23548e-07,550.0
29.72,0.0,550.0
29.84,1.29419e-07,550.0
29.96,1.29419e-07,550.0
30.08,2.58838e-07,550.0
30.2,1.94129e-07,550.0
30.32,1.29419e-07,550.0
30.44,1.94129e-07,550.0
30.56,2.58838e-07,550.0
30.68,3.88257e-07,550.0
30.8,0.0,550.0
30.92,2.58838e-07,550.0
31.04,2.58838e-07,550.0
31.16,1.29419e-07,550.0
31.28,2.58838e-07,550.0
31.4,6.47096e-08,550.0
31.52,6.47096e-08,550.0
31.64,3.88257e-07,550.0
31.76,3.23548e-07,550.0
31.88,6.47096e-08,550.0
32.0,1.94129e-07,550.0
32.12,1.29419e-07,550.0
32.24,2.58838e-07,550.0
32.36,7.76515e-07,550.0
32.48,2.58838e-07,550.0
32.6,0.0,550.0
32.72,2.58838e-07,550.0
32.84,4.52967e-07,550.0
32.96,6.47096e-08,550.0
33.08,2.58838e-07,550.0
33.2,1.29419e-07,550.0
33.32,4.52967e-07,550.0
33.44,6.47096e-08,550.0
33.56,0.0,550.0
33.68,2.58838e-07,550.0
33.8,1.29419e-07,550.0
33.92,0.0,550.0
34.04,1.94129e-07,550.0
34.16,6.47096e-08,550.0
34.28,2.58838e-07,550.0
34.4,1.29419e-07,550.0
34.52,1.94129e-07,550.0
34.64,1.94129e-07,550.0
34.76,1.29419e-07,550.0
34.88,1.29419e-07,550.0
35.0,3.23548e-07,550.0
35.12,2.58838e-07,550.0
35.24,3.23548e-07,550.0
35.36,1.94129e-07,550.0
35.48,1.94129e-07,550.0
35.6,6.47096e-08,550.0
35.72,1.94129e-07,550.0
35.84,4.52967e-07,550.0
35.96,1.94129e-07,550.0
36.08,6.47096e-08,550.0
36.2,1.94129e-07,550.0
36.32,1.29419e-07,550.0
36.44,1.94129e-07,550.0
36.56,1.94129e-07,550.0
36.68,1.94129e-07,550.0
36.8,3.23548e-07,550.0
36.92,1.29419e-07,550.0
37.04,1.94129e-07,550.0
37.16,2.58838e-07,550.0
37.28,1.29419e-07,550.0
37.4,6.47096e-08,550.0
37.52,1.29419e-07,550.0
37.64,6.47096e-08,550.0
37.76,2.58838e-07,550.0
37.88,1.29419e-07,550.0
38.0,6.47096e-08,550.0
38.12,1.94129e-07,550.0
38.24,6.47096e-08,550.0
38.36,6.47096e-08,550.0
38.48,1.94129e-07,550.0
38.6,3.23548e-07,550.0
38.72,6.47096e-08,550.0
38.84,6.47096e-08,550.0
38.96,3.23548e-07,550.0
39.08,3.23548e-07,550.0
39.2,3.88257e-07,550.0
39.32,2.58838e-07,550.0
39.44,2.58838e-07,550.0
39.56,1.94129e-07,550.0
39.68,1.29419e-07,550.0
39.8,1.94129e-07,550.0
39.92,2.58838e-07,550.0
40.04,5.82386e-07,550.0
40.16,2.58838e-07,550.0
40.28,3.23548e-07,550.0
40.4,3.88257e-07,550.0
40.52,1.94129e-07,550.0
40.64,2.58838e-07,550.0
40.76,5.17676e-07,550.0
40.88,5.82386e-07,550.0
41.0,3.88257e-07,550.0
41.12,3.88257e-07,550.0
41.24,2.58838e-07,550.0
41.36,3.23548e-07,550.0
41.48,3.23548e-07,550.0
41.6,1.94129e-07,550.0
41.72,7.11805e-07,550.0
41.84,3.23548e-07,550.0
41.96,7.76515e-07,550.0
42.08,6.47096e-07,550.0
42.2,4.52967e-07,550.0
42.32,7.11805e-07,550.0
42.44,4.52967e-07,550.0
42.56,6.47096e-07,550.0
42.68,3.88257e-07,550.0
42.8,9.70643e-07,550.0
42.92,1.42361e-06,550.0
43.04,7.76515e-07,550.0
43.16,5.17676e-07,550.0
43.28,1.42361e-06,550.0
43.4,1.68245e-06,550.0
43.52,1.29419e-06,550.0
43.64,1.55303e-06,550.0
43.76,1.3589e-06,550.0
43.88,1.81187e-06,550.0
44.0,2.13542e-06,550.0
44.12,2.20012e-06,550.0
44.24,2.97664e-06,550.0
44.36,2.84722e-06,550.0
44.48,3.04135e-06,550.0
44.6,4.14141e-06,550.0
44.72,4.20612e-06,550.0
44.84,4.20612e-06,550.0
44.96,4.20612e-06,550.0
45.08,6.14741e-06,550.0
45.2,9.57701e-06,550.0
45.32,1.00947e-05,550.0
45.44,1.30066e-05,550.0
45.56,1.82481e-05,550.0
45.68,2.70486e-05,550.0
45.8,6.26389e-05,550.0
45.92,0.000140355,550.0
46.04,0.000161062,550.0
46.16,0.000150385,550.0
46.28,0.000294881,550.0
46.4,0.00361008,550.0
46.52,0.0055293,550.0
46.64,0.000332995,550.0
46.76,0.000114536,550.0
46.88,5.94681e-05,550.0
47.0,3.54608e-05,550.0
47.12,2.25189e-05,550.0
47.24,1.68892e-05,550.0
47.36,1.15183e-05,550.0
47.48,9.38289e-06,550.0
47.6,7.18276e-06,550.0
47.72,6.72979e-06,550.0
47.84,4.27083e-06,550.0
47.96,3.88257e-06,550.0
48.08,2.97664e-06,550.0
48.2,3.17077e-06,550.0
48.32,3.04135e-06,550.0
48.44,1.94129e-06,550.0
48.56,2.07071e-06,550.0
48.68,1.61774e-06,550.0
48.8,1.55303e-06,550.0
48.92,1.61774e-06,550.0
49.04,1.42361e-06,550.0
49.16,8.41224e-07,550.0
49.28,1.22948e-06,550.0
49.4,1.42361e-06,550.0
49.52,8.41224e-07,550.0
49.64,9.05934e-07,550.0
49.76,4.52967e-07,550.0
49.88,3.23548e-07,550.0
50.0,8.41224e-07,550.0
50.12,4.52967e-07,550.0
50.24,1.03535e-06,550.0
50.36,7.11805e-07,550.0
50.48,5.17676e-07,550.0
50.6,7.76515e-07,550.0
50.72,1.94129e-07,550.0
50.84,2.58838e-07,550.0
50.96,2.58838e-07,550.0
51.08,4.52967e-07,550.0
51.2,3.88257e-07,550.0
51.32,5.17676e-07,550.0
51.44,5.17676e-07,550.0
51.56,3.23548e-07,550.0
51.68,1.94129e-07,550.0
51.8,3.23548e-07,550.0
51.92,2.58838e-07,550.0
52.04,3.23548e-07,550.0
52.16,3.88257e-07,550.0
52.28,1.29419e-07,550.0
52.4,5.17676e-07,550.0
52.52,1.94129e-07,550.0
52.64,3.23548e-07,550.0
52.76,2.58838e-07,550.0
52.88,3.88257e-07,550.0
53.0,6.47096e-08,550.0
53.12,6.47096e-08,550.0
53.24,2.58838e-07,550.0
53.36,1.29419e-07,550.0
53.48,1.29419e-07,550.0
53.6,1.94129e-07,550.0
53.72,2.58838e-07,550.0
53.84,3.88257e-07,550.0
53.96,1.94129e-07,550.0
54.08,1.94129e-07,550.0
54.2,2.58838e-07,550.0
54.32,6.47096e-08,550.0
54.44,6.47096e-08,550.0
54.56,3.23548e-07,550.0
54.68,2.58838e-07,550.0
54.8,0.0,550.0
54.92,1.29419e-07,550.0
55.04,3.23548e-07,550.0
55.16,1.94129e-07,550.0
55.28,3.88257e-07,550.0
55.4,1.94129e-07,550.0
55.52,1.94129e-07,550.0
55.64,6.47096e-08,550.0
55.76,2.58838e-07,550.0
55.88,1.29419e-07,550.0
56.0,0.0,550.0
56.12,0.0,550.0
56.24,6.47096e-08,550.0
56.36,0.0,550.0
56.48,1.94129e-07,550.0
56.6,0.0,550.0
56.72,6.47096e-08,550.0
56.84,1.29419e-07,550.0
56.96,0.0,550.0
57.08,6.47096e-08,550.0
57.2,2.58838e-07,550.0
57.32,0.0,550.0
57.44,1.94129e-07,550.0
57.56,0.0,550.0
57.68,2.58838e-07,550.0
57.8,6.47096e-08,550.0
57.92,6.47096e-08,550.0
58.04,2.58838e-07,550.0
58.16,1.29419e-07,550.0
58.28,0.0,550.0
58.4,1.29419e-07,550.0
58.52,5.17676e-07,550.0
58.64,6.47096e-08,550.0
58.76,1.94129e-07,550.0
58.88,6.47096e-08,550.0
59.0,1.94129e-07,550.0
59.12,1.29419e-07,550.0
59.24,6.47096e-08,550.0
59.36,6.47096e-08,550.0
59.48,2.58838e-07,550.0
59.6,6.47096e-08,550.0
59.72,2.58838e-07,550.0
59.84,6.47096e-08,550.0
59.96,1.29419e-07,550.0
40.06,2.50826e-07,750.0
40.18,3.76239e-07,750.0
40.3,2.50826e-07,750.0
40.42,1.88119e-07,750.0
40.54,5.64358e-07,750.0
40.66,1.88119e-07,750.0
40.78,2.50826e-07,750.0
40.9,3.13532e-07,750.0
41.02,3.13532e-07,750.0
41.14,2.50826e-07,750.0
41.26,5.64358e-07,750.0
41.38,6.27064e-07,750.0
41.5,3.13532e-07,750.0
41.62,5.64358e-07,750.0
41.74,4.38945e-07,750.0
41.86,4.38945e-07,750.0
41.98,2.50826e-07,750.0
42.1,3.76239e-07,750.0
42.22,5.01651e-07,750.0
42.34,6.27064e-07,750.0
42.46,4.38945e-07,750.0
42.58,4.38945e-07,750.0
42.7,4.38945e-07,750.0
42.82,1.0033e-06,750.0
42.94,3.76239e-07,750.0
43.06,5.01651e-07,750.0
43.18,9.40597e-07,750.0
43.3,1.25413e-06,750.0
43.42,1.06601e-06,750.0
43.54,1.37954e-06,750.0
43.66,1.81849e-06,750.0
43.78,1.25413e-06,750.0
43.9,1.37954e-06,750.0
44.02,1.50495e-06,750.0
44.14,2.06931e-06,750.0
44.26,1.50495e-06,750.0
44.38,2.19473e-06,750.0
44.5,2.63367e-06,750.0
44.62,2.75908e-06,750.0
44.74,3.44885e-06,750.0
44.86,4.07592e-06,750.0
44.98,5.45546e-06,750.0
45.1,5.45546e-06,750.0
45.22,7.96372e-06,750.0
45.34,9.40597e-06,750.0
45.46,1.05974e-05,750.0
45.58,1.34819e-05,750.0
45.7,1.90628e-05,750.0
45.82,3.41123e-05,750.0
45.94,6.38352e-05,750.0
46.06,9.14887e-05,750.0
46.18,0.000131119,750.0
46.3,0.000336796,750.0
46.42,0.00831443,750.0
46.54,0.00234259,750.0
46.66,0.000241294,750.0
46.78,9.0987e-05,750.0
46.9,4.62146e-05,750.0
47.02,3.01618e-05,750.0
47.14,1.95644e-05,750.0
47.26,1.46733e-05,750.0
47.38,1.02839e-05,750.0
47.5,7.52477e-06,750.0
47.62,5.70629e-06,750.0
47.74,5.8317e-06,750.0
47.86,4.07592e-06,750.0
47.98,4.20133e-06,750.0
48.1,3.51156e-06,750.0
48.22,1.9439e-06,750.0
48.34,2.44555e-06,750.0
48.46,1.9439e-06,750.0
48.58,1.69307e-06,750.0
48.7,1.69307e-06,750.0
48.82,1.06601e-06,750.0
48.94,1.31684e-06,750.0
49.06,1.0033e-06,750.0
49.18,9.40597e-07,750.0
49.3,1.06601e-06,750.0
49.42,1.0033e-06,750.0
49.54,5.01651e-07,750.0
49.66,5.01651e-07,750.0
49.78,8.7789e-07,750.0
49.9,9.40597e-07,750.0
50.02,3.76239e-07,750.0
50.14,6.27064e-07,750.0
50.26,3.76239e-07,750.0
50.38,5.01651e-07,750.0
50.5,5.64358e-07,750.0
50.62,4.38945e-07,750.0
50.74,4.38945e-07,750.0
50.86,1.88119e-07,750.0
50.98,1.88119e-07,750.0
51.1,3.13532e-07,750.0
51.22,1.25413e-07,750.0
51.34,2.50826e-07,750.0
51.46,3.13532e-07,750.0
51.58,3.76239e-07,750.0
51.7,3.13532e-07,750.0
51.82,1.25413e-07,750.0
51.94,6.27064e-08,750.0
52.06,4.38945e-07,750.0
52.18,1.25413e-07,750.0
52.3,1.88119e-07,750.0
52.42,1.25413e-07,750.0
52.54,1.25413e-07,750.0
52.66,3.13532e-07,750.0
52.78,2.50826e-07,750.0
52.9,6.27064e-08,750.0
53.02,0.0,750.0
53.14,6.27064e-08,750.0
53.26,1.88119e-07,750.0
53.38,1.88119e-07,750.0
53.5,1.88119e-07,750.0
53.62,1.88119e-07,750.0
53.74,0.0,750.0
53.86,1.25413e-07,750.0
53.98,1.88119e-07,750.0
54.1,3.76239e-07,750.0
54.22,6.27064e-08,750.0
54.34,1.88119e-07,750.0
54.46,2.50826e-07,750.0
54.58,3.76239e-07,750.0
54.7,0.0,750.0
54.82,0.0,750.0
54.94,1.25413e-07,750.0
55.0,6.27064e-08,750.0