File: src/acoustic_resonators/asops/processed_data/xrd_FM308.csv
2theta,intensity,temperature,ID
10.0,3.06312e-07,60,FM308_membrane
10.02,5.51362e-07,60,FM308_membrane
10.04,3.67575e-07,60,FM308_membrane
10.06,6.12625e-07,60,FM308_membrane
10.08,6.73887e-07,60,FM308_membrane
10.1,6.12625e-07,60,FM308_membrane
10.12,4.901e-07,60,FM308_membrane
10.14,3.06312e-07,60,FM308_membrane
10.16,4.901e-07,60,FM308_membrane
10.18,4.28837e-07,60,FM308_membrane
10.2,6.12625e-07,60,FM308_membrane
10.22,1.22525e-07,60,FM308_membrane
10.24,7.96412e-07,60,FM308_membrane
10.26,3.67575e-07,60,FM308_membrane
10.28,3.06312e-07,60,FM308_membrane
10.3,4.28837e-07,60,FM308_membrane
10.32,6.12625e-07,60,FM308_membrane
10.34,4.28837e-07,60,FM308_membrane
10.36,2.4505e-07,60,FM308_membrane
10.38,1.83787e-07,60,FM308_membrane
10.4,4.901e-07,60,FM308_membrane
10.42,6.12625e-08,60,FM308_membrane
10.44,2.4505e-07,60,FM308_membrane
10.46,5.51362e-07,60,FM308_membrane
10.48,1.83787e-07,60,FM308_membrane
10.5,4.901e-07,60,FM308_membrane
10.52,6.12625e-07,60,FM308_membrane
10.54,4.28837e-07,60,FM308_membrane
10.56,5.51362e-07,60,FM308_membrane
10.58,4.28837e-07,60,FM308_membrane
10.6,3.67575e-07,60,FM308_membrane
10.62,1.22525e-07,60,FM308_membrane
10.64,3.06312e-07,60,FM308_membrane
10.66,6.12625e-07,60,FM308_membrane
10.68,1.83787e-07,60,FM308_membrane
10.7,7.3515e-07,60,FM308_membrane
10.72,4.28837e-07,60,FM308_membrane
10.74,5.51362e-07,60,FM308_membrane
10.76,1.83787e-07,60,FM308_membrane
10.78,6.12625e-07,60,FM308_membrane
10.8,2.4505e-07,60,FM308_membrane
10.82,4.901e-07,60,FM308_membrane
10.84,2.4505e-07,60,FM308_membrane
10.86,2.4505e-07,60,FM308_membrane
10.88,3.67575e-07,60,FM308_membrane
10.9,3.06312e-07,60,FM308_membrane
10.92,4.28837e-07,60,FM308_membrane
10.94,4.28837e-07,60,FM308_membrane
10.96,3.06312e-07,60,FM308_membrane
10.98,4.901e-07,60,FM308_membrane
11.0,4.901e-07,60,FM308_membrane
11.02,6.73887e-07,60,FM308_membrane
11.04,4.28837e-07,60,FM308_membrane
11.06,6.12625e-07,60,FM308_membrane
11.08,4.28837e-07,60,FM308_membrane
11.1,1.83787e-07,60,FM308_membrane
11.12,5.51362e-07,60,FM308_membrane
11.14,4.901e-07,60,FM308_membrane
11.16,2.4505e-07,60,FM308_membrane
11.18,3.67575e-07,60,FM308_membrane
11.2,3.67575e-07,60,FM308_membrane
11.22,4.28837e-07,60,FM308_membrane
11.24,2.4505e-07,60,FM308_membrane
11.26,4.28837e-07,60,FM308_membrane
11.28,6.73887e-07,60,FM308_membrane
11.3,1.83787e-07,60,FM308_membrane
11.32,5.51362e-07,60,FM308_membrane
11.34,2.4505e-07,60,FM308_membrane
11.36,3.06312e-07,60,FM308_membrane
11.38,1.83787e-07,60,FM308_membrane
11.4,3.06312e-07,60,FM308_membrane
11.42,2.4505e-07,60,FM308_membrane
11.44,3.67575e-07,60,FM308_membrane
11.46,3.06312e-07,60,FM308_membrane
11.48,4.28837e-07,60,FM308_membrane
11.5,2.4505e-07,60,FM308_membrane
11.52,4.28837e-07,60,FM308_membrane
11.54,6.12625e-07,60,FM308_membrane
11.56,3.67575e-07,60,FM308_membrane
11.58,4.28837e-07,60,FM308_membrane
11.6,6.12625e-08,60,FM308_membrane
11.62,3.06312e-07,60,FM308_membrane
11.64,6.12625e-08,60,FM308_membrane
11.66,4.28837e-07,60,FM308_membrane
11.68,1.22525e-07,60,FM308_membrane
11.7,3.06312e-07,60,FM308_membrane
11.72,3.06312e-07,60,FM308_membrane
11.74,3.67575e-07,60,FM308_membrane
11.76,3.06312e-07,60,FM308_membrane
11.78,3.67575e-07,60,FM308_membrane
11.8,4.28837e-07,60,FM308_membrane
11.82,3.06312e-07,60,FM308_membrane
11.84,1.83787e-07,60,FM308_membrane
11.86,3.06312e-07,60,FM308_membrane
11.88,5.51362e-07,60,FM308_membrane
11.9,4.28837e-07,60,FM308_membrane
11.92,5.51362e-07,60,FM308_membrane
11.94,5.51362e-07,60,FM308_membrane
11.96,3.06312e-07,60,FM308_membrane
11.98,4.28837e-07,60,FM308_membrane
12.0,4.901e-07,60,FM308_membrane
12.02,1.22525e-07,60,FM308_membrane
12.04,3.67575e-07,60,FM308_membrane
12.06,5.51362e-07,60,FM308_membrane
12.08,6.12625e-08,60,FM308_membrane
12.1,3.06312e-07,60,FM308_membrane
12.12,4.28837e-07,60,FM308_membrane
12.14,3.06312e-07,60,FM308_membrane
12.16,4.901e-07,60,FM308_membrane
12.18,1.22525e-07,60,FM308_membrane
12.2,1.83787e-07,60,FM308_membrane
12.22,3.06312e-07,60,FM308_membrane
12.24,1.83787e-07,60,FM308_membrane
12.26,4.28837e-07,60,FM308_membrane
12.28,1.83787e-07,60,FM308_membrane
12.3,6.12625e-07,60,FM308_membrane
12.32,6.12625e-08,60,FM308_membrane
12.34,4.28837e-07,60,FM308_membrane
12.36,6.73887e-07,60,FM308_membrane
12.38,2.4505e-07,60,FM308_membrane
12.4,3.06312e-07,60,FM308_membrane
12.42,4.28837e-07,60,FM308_membrane
12.44,3.67575e-07,60,FM308_membrane
12.46,3.67575e-07,60,FM308_membrane
12.48,3.06312e-07,60,FM308_membrane
12.5,3.06312e-07,60,FM308_membrane
12.52,3.06312e-07,60,FM308_membrane
12.54,5.51362e-07,60,FM308_membrane
12.56,4.28837e-07,60,FM308_membrane
12.58,1.83787e-07,60,FM308_membrane
12.6,3.06312e-07,60,FM308_membrane
12.62,3.67575e-07,60,FM308_membrane
12.64,3.67575e-07,60,FM308_membrane
12.66,6.12625e-07,60,FM308_membrane
12.68,3.67575e-07,60,FM308_membrane
12.7,5.51362e-07,60,FM308_membrane
12.72,1.83787e-07,60,FM308_membrane
12.74,2.4505e-07,60,FM308_membrane
12.76,3.67575e-07,60,FM308_membrane
12.78,3.67575e-07,60,FM308_membrane
12.8,2.4505e-07,60,FM308_membrane
12.82,5.51362e-07,60,FM308_membrane
12.84,4.28837e-07,60,FM308_membrane
12.86,3.06312e-07,60,FM308_membrane
12.88,2.4505e-07,60,FM308_membrane
12.9,3.06312e-07,60,FM308_membrane
12.92,2.4505e-07,60,FM308_membrane
12.94,5.51362e-07,60,FM308_membrane
12.96,7.3515e-07,60,FM308_membrane
12.98,1.22525e-07,60,FM308_membrane
13.0,2.4505e-07,60,FM308_membrane
13.02,4.901e-07,60,FM308_membrane
13.04,2.4505e-07,60,FM308_membrane
13.06,6.12625e-07,60,FM308_membrane
13.08,1.83787e-07,60,FM308_membrane
13.1,1.22525e-07,60,FM308_membrane
13.12,2.4505e-07,60,FM308_membrane
13.14,1.83787e-07,60,FM308_membrane
13.16,6.73887e-07,60,FM308_membrane
13.18,3.67575e-07,60,FM308_membrane
13.2,2.4505e-07,60,FM308_membrane
13.22,2.4505e-07,60,FM308_membrane
13.24,3.06312e-07,60,FM308_membrane
13.26,6.12625e-07,60,FM308_membrane
13.28,1.22525e-07,60,FM308_membrane
13.3,1.83787e-07,60,FM308_membrane
13.32,1.22525e-07,60,FM308_membrane
13.34,6.12625e-08,60,FM308_membrane
13.36,3.67575e-07,60,FM308_membrane
13.38,6.12625e-08,60,FM308_membrane
13.4,1.83787e-07,60,FM308_membrane
13.42,1.22525e-07,60,FM308_membrane
13.44,4.901e-07,60,FM308_membrane
13.46,2.4505e-07,60,FM308_membrane
13.48,4.901e-07,60,FM308_membrane
13.5,3.67575e-07,60,FM308_membrane
13.52,1.83787e-07,60,FM308_membrane
13.54,2.4505e-07,60,FM308_membrane
13.56,4.28837e-07,60,FM308_membrane
13.58,4.901e-07,60,FM308_membrane
13.6,4.901e-07,60,FM308_membrane
13.62,6.12625e-07,60,FM308_membrane
13.64,4.28837e-07,60,FM308_membrane
13.66,3.67575e-07,60,FM308_membrane
13.68,3.06312e-07,60,FM308_membrane
13.7,3.67575e-07,60,FM308_membrane
13.72,1.22525e-07,60,FM308_membrane
13.74,3.06312e-07,60,FM308_membrane
13.76,4.28837e-07,60,FM308_membrane
13.78,4.901e-07,60,FM308_membrane
13.8,4.28837e-07,60,FM308_membrane
13.82,3.06312e-07,60,FM308_membrane
13.84,4.901e-07,60,FM308_membrane
13.86,3.06312e-07,60,FM308_membrane
13.88,4.28837e-07,60,FM308_membrane
13.9,4.901e-07,60,FM308_membrane
13.92,4.28837e-07,60,FM308_membrane
13.94,2.4505e-07,60,FM308_membrane
13.96,2.4505e-07,60,FM308_membrane
13.98,1.83787e-07,60,FM308_membrane
14.0,3.06312e-07,60,FM308_membrane
14.02,2.4505e-07,60,FM308_membrane
14.04,6.12625e-07,60,FM308_membrane
14.06,4.901e-07,60,FM308_membrane
14.08,5.51362e-07,60,FM308_membrane
14.1,6.12625e-08,60,FM308_membrane
14.12,2.4505e-07,60,FM308_membrane
14.14,1.83787e-07,60,FM308_membrane
14.16,3.67575e-07,60,FM308_membrane
14.18,3.06312e-07,60,FM308_membrane
14.2,6.12625e-07,60,FM308_membrane
14.22,3.67575e-07,60,FM308_membrane
14.24,3.67575e-07,60,FM308_membrane
14.26,4.28837e-07,60,FM308_membrane
14.28,4.901e-07,60,FM308_membrane
14.3,1.83787e-07,60,FM308_membrane
14.32,1.83787e-07,60,FM308_membrane
14.34,1.22525e-07,60,FM308_membrane
14.36,1.83787e-07,60,FM308_membrane
14.38,4.28837e-07,60,FM308_membrane
14.4,2.4505e-07,60,FM308_membrane
14.42,7.96412e-07,60,FM308_membrane
14.44,4.901e-07,60,FM308_membrane
14.46,0.0,60,FM308_membrane
14.48,3.06312e-07,60,FM308_membrane
14.5,2.4505e-07,60,FM308_membrane
14.52,3.06312e-07,60,FM308_membrane
14.54,5.51362e-07,60,FM308_membrane
14.56,2.4505e-07,60,FM308_membrane
14.58,3.67575e-07,60,FM308_membrane
14.6,3.06312e-07,60,FM308_membrane
14.62,1.83787e-07,60,FM308_membrane
14.64,1.83787e-07,60,FM308_membrane
14.66,2.4505e-07,60,FM308_membrane
14.68,4.901e-07,60,FM308_membrane
14.7,3.67575e-07,60,FM308_membrane
14.72,2.4505e-07,60,FM308_membrane
14.74,1.22525e-07,60,FM308_membrane
14.76,4.28837e-07,60,FM308_membrane
14.78,1.83787e-07,60,FM308_membrane
14.8,2.4505e-07,60,FM308_membrane
14.82,1.83787e-07,60,FM308_membrane
14.84,2.4505e-07,60,FM308_membrane
14.86,3.06312e-07,60,FM308_membrane
14.88,4.28837e-07,60,FM308_membrane
14.9,1.22525e-07,60,FM308_membrane
14.92,4.28837e-07,60,FM308_membrane
14.94,3.06312e-07,60,FM308_membrane
14.96,3.67575e-07,60,FM308_membrane
14.98,1.83787e-07,60,FM308_membrane
15.0,3.06312e-07,60,FM308_membrane
15.02,1.22525e-07,60,FM308_membrane
15.04,6.12625e-07,60,FM308_membrane
15.06,3.06312e-07,60,FM308_membrane
15.08,2.4505e-07,60,FM308_membrane
15.1,1.83787e-07,60,FM308_membrane
15.12,3.67575e-07,60,FM308_membrane
15.14,1.83787e-07,60,FM308_membrane
15.16,2.4505e-07,60,FM308_membrane
15.18,4.901e-07,60,FM308_membrane
15.2,3.67575e-07,60,FM308_membrane
15.22,3.06312e-07,60,FM308_membrane
15.24,2.4505e-07,60,FM308_membrane
15.26,4.28837e-07,60,FM308_membrane
15.28,4.901e-07,60,FM308_membrane
15.3,1.22525e-07,60,FM308_membrane
15.32,3.67575e-07,60,FM308_membrane
15.34,3.06312e-07,60,FM308_membrane
15.36,3.67575e-07,60,FM308_membrane
15.38,1.22525e-07,60,FM308_membrane
15.4,1.22525e-07,60,FM308_membrane
15.42,4.28837e-07,60,FM308_membrane
15.44,5.51362e-07,60,FM308_membrane
15.46,2.4505e-07,60,FM308_membrane
15.48,4.28837e-07,60,FM308_membrane
15.5,3.06312e-07,60,FM308_membrane
15.52,2.4505e-07,60,FM308_membrane
15.54,4.28837e-07,60,FM308_membrane
15.56,1.83787e-07,60,FM308_membrane
15.58,3.67575e-07,60,FM308_membrane
15.6,2.4505e-07,60,FM308_membrane
15.62,7.96412e-07,60,FM308_membrane
15.64,1.22525e-07,60,FM308_membrane
15.66,2.4505e-07,60,FM308_membrane
15.68,1.83787e-07,60,FM308_membrane
15.7,3.06312e-07,60,FM308_membrane
15.72,3.06312e-07,60,FM308_membrane
15.74,4.28837e-07,60,FM308_membrane
15.76,4.901e-07,60,FM308_membrane
15.78,3.06312e-07,60,FM308_membrane
15.8,1.22525e-07,60,FM308_membrane
15.82,2.4505e-07,60,FM308_membrane
15.84,4.28837e-07,60,FM308_membrane
15.86,4.901e-07,60,FM308_membrane
15.88,5.51362e-07,60,FM308_membrane
15.9,4.28837e-07,60,FM308_membrane
15.92,5.51362e-07,60,FM308_membrane
15.94,5.51362e-07,60,FM308_membrane
15.96,3.06312e-07,60,FM308_membrane
15.98,3.67575e-07,60,FM308_membrane
16.0,4.901e-07,60,FM308_membrane
16.02,3.67575e-07,60,FM308_membrane
16.04,5.51362e-07,60,FM308_membrane
16.06,4.28837e-07,60,FM308_membrane
16.08,4.28837e-07,60,FM308_membrane
16.1,6.12625e-07,60,FM308_membrane
16.12,3.67575e-07,60,FM308_membrane
16.14,1.22525e-07,60,FM308_membrane
16.16,1.83787e-07,60,FM308_membrane
16.18,2.4505e-07,60,FM308_membrane
16.2,4.28837e-07,60,FM308_membrane
16.22,1.83787e-07,60,FM308_membrane
16.24,4.28837e-07,60,FM308_membrane
16.26,2.4505e-07,60,FM308_membrane
16.28,3.06312e-07,60,FM308_membrane
16.3,1.83787e-07,60,FM308_membrane
16.32,3.06312e-07,60,FM308_membrane
16.34,5.51362e-07,60,FM308_membrane
16.36,1.22525e-07,60,FM308_membrane
16.38,3.06312e-07,60,FM308_membrane
16.4,1.83787e-07,60,FM308_membrane
16.42,3.06312e-07,60,FM308_membrane
16.44,3.06312e-07,60,FM308_membrane
16.46,5.51362e-07,60,FM308_membrane
16.48,3.06312e-07,60,FM308_membrane
16.5,3.06312e-07,60,FM308_membrane
16.52,3.06312e-07,60,FM308_membrane
16.54,1.83787e-07,60,FM308_membrane
16.56,2.4505e-07,60,FM308_membrane
16.58,3.06312e-07,60,FM308_membrane
16.6,1.22525e-07,60,FM308_membrane
16.62,1.83787e-07,60,FM308_membrane
16.64,4.28837e-07,60,FM308_membrane
16.66,1.83787e-07,60,FM308_membrane
16.68,3.06312e-07,60,FM308_membrane
16.7,2.4505e-07,60,FM308_membrane
16.72,6.73887e-07,60,FM308_membrane
16.74,1.83787e-07,60,FM308_membrane
16.76,1.83787e-07,60,FM308_membrane
16.78,1.83787e-07,60,FM308_membrane
16.8,3.67575e-07,60,FM308_membrane
16.82,1.83787e-07,60,FM308_membrane
16.84,3.67575e-07,60,FM308_membrane
16.86,5.51362e-07,60,FM308_membrane
16.88,5.51362e-07,60,FM308_membrane
16.9,3.06312e-07,60,FM308_membrane
16.92,3.06312e-07,60,FM308_membrane
16.94,2.4505e-07,60,FM308_membrane
16.96,1.83787e-07,60,FM308_membrane
16.98,1.22525e-07,60,FM308_membrane
17.0,3.67575e-07,60,FM308_membrane
17.02,2.4505e-07,60,FM308_membrane
17.04,1.83787e-07,60,FM308_membrane
17.06,5.51362e-07,60,FM308_membrane
17.08,1.83787e-07,60,FM308_membrane
17.1,6.12625e-08,60,FM308_membrane
17.12,4.28837e-07,60,FM308_membrane
17.14,4.28837e-07,60,FM308_membrane
17.16,3.67575e-07,60,FM308_membrane
17.18,5.51362e-07,60,FM308_membrane
17.2,1.83787e-07,60,FM308_membrane
17.22,2.4505e-07,60,FM308_membrane
17.24,3.67575e-07,60,FM308_membrane
17.26,3.06312e-07,60,FM308_membrane
17.28,1.22525e-07,60,FM308_membrane
17.3,2.4505e-07,60,FM308_membrane
17.32,3.06312e-07,60,FM308_membrane
17.34,1.83787e-07,60,FM308_membrane
17.36,3.06312e-07,60,FM308_membrane
17.38,3.67575e-07,60,FM308_membrane
17.4,1.83787e-07,60,FM308_membrane
17.42,3.06312e-07,60,FM308_membrane
17.44,4.28837e-07,60,FM308_membrane
17.46,4.28837e-07,60,FM308_membrane
17.48,1.83787e-07,60,FM308_membrane
17.5,6.12625e-08,60,FM308_membrane
17.52,1.22525e-07,60,FM308_membrane
17.54,1.83787e-07,60,FM308_membrane
17.56,3.67575e-07,60,FM308_membrane
17.58,4.28837e-07,60,FM308_membrane
17.6,6.12625e-07,60,FM308_membrane
17.62,3.06312e-07,60,FM308_membrane
17.64,1.83787e-07,60,FM308_membrane
17.66,2.4505e-07,60,FM308_membrane
17.68,3.67575e-07,60,FM308_membrane
17.7,1.83787e-07,60,FM308_membrane
17.72,2.4505e-07,60,FM308_membrane
17.74,5.51362e-07,60,FM308_membrane
17.76,1.83787e-07,60,FM308_membrane
17.78,4.901e-07,60,FM308_membrane
17.8,2.4505e-07,60,FM308_membrane
17.82,4.901e-07,60,FM308_membrane
17.84,4.28837e-07,60,FM308_membrane
17.86,1.83787e-07,60,FM308_membrane
17.88,4.28837e-07,60,FM308_membrane
17.9,1.22525e-07,60,FM308_membrane
17.92,4.28837e-07,60,FM308_membrane
17.94,6.12625e-07,60,FM308_membrane
17.96,6.12625e-08,60,FM308_membrane
17.98,3.67575e-07,60,FM308_membrane
18.0,1.83787e-07,60,FM308_membrane
18.02,4.28837e-07,60,FM308_membrane
18.04,4.901e-07,60,FM308_membrane
18.06,4.901e-07,60,FM308_membrane
18.08,2.4505e-07,60,FM308_membrane
18.1,3.67575e-07,60,FM308_membrane
18.12,5.51362e-07,60,FM308_membrane
18.14,6.73887e-07,60,FM308_membrane
18.16,2.4505e-07,60,FM308_membrane
18.18,6.12625e-07,60,FM308_membrane
18.2,5.51362e-07,60,FM308_membrane
18.22,4.901e-07,60,FM308_membrane
18.24,1.22525e-07,60,FM308_membrane
18.26,1.83787e-07,60,FM308_membrane
18.28,1.83787e-07,60,FM308_membrane
18.3,3.06312e-07,60,FM308_membrane
18.32,3.67575e-07,60,FM308_membrane
18.34,6.12625e-08,60,FM308_membrane
18.36,1.83787e-07,60,FM308_membrane
18.38,2.4505e-07,60,FM308_membrane
18.4,3.67575e-07,60,FM308_membrane
18.42,1.22525e-07,60,FM308_membrane
18.44,2.4505e-07,60,FM308_membrane
18.46,3.67575e-07,60,FM308_membrane
18.48,2.4505e-07,60,FM308_membrane
18.5,3.06312e-07,60,FM308_membrane
18.52,2.4505e-07,60,FM308_membrane
18.54,3.06312e-07,60,FM308_membrane
18.56,1.83787e-07,60,FM308_membrane
18.58,5.51362e-07,60,FM308_membrane
18.6,1.22525e-07,60,FM308_membrane
18.62,3.67575e-07,60,FM308_membrane
18.64,2.4505e-07,60,FM308_membrane
18.66,2.4505e-07,60,FM308_membrane
18.68,5.51362e-07,60,FM308_membrane
18.7,2.4505e-07,60,FM308_membrane
18.72,3.67575e-07,60,FM308_membrane
18.74,3.67575e-07,60,FM308_membrane
18.76,4.28837e-07,60,FM308_membrane
18.78,3.67575e-07,60,FM308_membrane
18.8,3.06312e-07,60,FM308_membrane
18.82,3.06312e-07,60,FM308_membrane
18.84,3.06312e-07,60,FM308_membrane
18.86,1.83787e-07,60,FM308_membrane
18.88,4.28837e-07,60,FM308_membrane
18.9,3.67575e-07,60,FM308_membrane
18.92,4.28837e-07,60,FM308_membrane
18.94,4.28837e-07,60,FM308_membrane
18.96,5.51362e-07,60,FM308_membrane
18.98,4.28837e-07,60,FM308_membrane
19.0,2.4505e-07,60,FM308_membrane
19.02,3.67575e-07,60,FM308_membrane
19.04,3.06312e-07,60,FM308_membrane
19.06,6.12625e-08,60,FM308_membrane
19.08,1.83787e-07,60,FM308_membrane
19.1,3.06312e-07,60,FM308_membrane
19.12,3.06312e-07,60,FM308_membrane
19.14,3.67575e-07,60,FM308_membrane
19.16,3.67575e-07,60,FM308_membrane
19.18,3.67575e-07,60,FM308_membrane
19.2,4.901e-07,60,FM308_membrane
19.22,4.901e-07,60,FM308_membrane
19.24,1.22525e-07,60,FM308_membrane
19.26,3.67575e-07,60,FM308_membrane
19.28,3.67575e-07,60,FM308_membrane
19.3,3.67575e-07,60,FM308_membrane
19.32,1.22525e-07,60,FM308_membrane
19.34,2.4505e-07,60,FM308_membrane
19.36,5.51362e-07,60,FM308_membrane
19.38,4.901e-07,60,FM308_membrane
19.4,3.67575e-07,60,FM308_membrane
19.42,4.28837e-07,60,FM308_membrane
19.44,2.4505e-07,60,FM308_membrane
19.46,7.96412e-07,60,FM308_membrane
19.48,4.901e-07,60,FM308_membrane
19.5,6.73887e-07,60,FM308_membrane
19.52,4.901e-07,60,FM308_membrane
19.54,4.28837e-07,60,FM308_membrane
19.56,3.06312e-07,60,FM308_membrane
19.58,6.12625e-07,60,FM308_membrane
19.6,4.28837e-07,60,FM308_membrane
19.62,3.67575e-07,60,FM308_membrane
19.64,4.28837e-07,60,FM308_membrane
19.66,4.901e-07,60,FM308_membrane
19.68,6.12625e-07,60,FM308_membrane
19.7,2.4505e-07,60,FM308_membrane
19.72,1.83787e-07,60,FM308_membrane
19.74,4.28837e-07,60,FM308_membrane
19.76,1.22525e-07,60,FM308_membrane
19.78,3.67575e-07,60,FM308_membrane
19.8,9.18937e-07,60,FM308_membrane
19.82,4.901e-07,60,FM308_membrane
19.84,3.67575e-07,60,FM308_membrane
19.86,2.4505e-07,60,FM308_membrane
19.88,5.51362e-07,60,FM308_membrane
19.9,9.18937e-07,60,FM308_membrane
19.92,4.901e-07,60,FM308_membrane
19.94,4.901e-07,60,FM308_membrane
19.96,3.06312e-07,60,FM308_membrane
19.98,2.4505e-07,60,FM308_membrane
20.0,3.67575e-07,60,FM308_membrane
20.02,6.73887e-07,60,FM308_membrane
20.04,6.12625e-07,60,FM308_membrane
20.06,4.901e-07,60,FM308_membrane
20.08,2.4505e-07,60,FM308_membrane
20.1,3.67575e-07,60,FM308_membrane
20.12,6.12625e-07,60,FM308_membrane
20.14,6.12625e-07,60,FM308_membrane
20.16,7.3515e-07,60,FM308_membrane
20.18,4.28837e-07,60,FM308_membrane
20.2,1.83787e-07,60,FM308_membrane
20.22,3.06312e-07,60,FM308_membrane
20.24,5.51362e-07,60,FM308_membrane
20.26,6.12625e-07,60,FM308_membrane
20.28,3.06312e-07,60,FM308_membrane
20.3,5.51362e-07,60,FM308_membrane
20.32,4.901e-07,60,FM308_membrane
20.34,5.51362e-07,60,FM308_membrane
20.36,4.901e-07,60,FM308_membrane
20.38,6.73887e-07,60,FM308_membrane
20.4,3.67575e-07,60,FM308_membrane
20.42,3.06312e-07,60,FM308_membrane
20.44,8.57675e-07,60,FM308_membrane
20.46,7.3515e-07,60,FM308_membrane
20.48,6.73887e-07,60,FM308_membrane
20.5,6.12625e-07,60,FM308_membrane
20.52,6.73887e-07,60,FM308_membrane
20.54,7.3515e-07,60,FM308_membrane
20.56,3.67575e-07,60,FM308_membrane
20.58,6.73887e-07,60,FM308_membrane
20.6,7.3515e-07,60,FM308_membrane
20.62,1.28651e-06,60,FM308_membrane
20.64,7.3515e-07,60,FM308_membrane
20.66,6.12625e-07,60,FM308_membrane
20.68,8.57675e-07,60,FM308_membrane
20.7,7.3515e-07,60,FM308_membrane
20.72,5.51362e-07,60,FM308_membrane
20.74,3.67575e-07,60,FM308_membrane
20.76,4.28837e-07,60,FM308_membrane
20.78,6.73887e-07,60,FM308_membrane
20.8,6.73887e-07,60,FM308_membrane
20.82,6.73887e-07,60,FM308_membrane
20.84,6.73887e-07,60,FM308_membrane
20.86,1.10272e-06,60,FM308_membrane
20.88,5.51362e-07,60,FM308_membrane
20.9,6.73887e-07,60,FM308_membrane
20.92,3.67575e-07,60,FM308_membrane
20.94,7.96412e-07,60,FM308_membrane
20.96,6.12625e-07,60,FM308_membrane
20.98,8.57675e-07,60,FM308_membrane
21.0,6.12625e-07,60,FM308_membrane
21.02,7.3515e-07,60,FM308_membrane
21.04,4.28837e-07,60,FM308_membrane
21.06,6.73887e-07,60,FM308_membrane
21.08,9.18937e-07,60,FM308_membrane
21.1,5.51362e-07,60,FM308_membrane
21.12,9.18937e-07,60,FM308_membrane
21.14,6.73887e-07,60,FM308_membrane
21.16,1.28651e-06,60,FM308_membrane
21.18,1.28651e-06,60,FM308_membrane
21.2,9.802e-07,60,FM308_membrane
21.22,7.3515e-07,60,FM308_membrane
21.24,1.16399e-06,60,FM308_membrane
21.26,1.04146e-06,60,FM308_membrane
21.28,6.12625e-07,60,FM308_membrane
21.3,9.802e-07,60,FM308_membrane
21.32,7.3515e-07,60,FM308_membrane
21.34,9.18937e-07,60,FM308_membrane
21.36,9.802e-07,60,FM308_membrane
21.38,7.3515e-07,60,FM308_membrane
21.4,6.12625e-07,60,FM308_membrane
21.42,1.34777e-06,60,FM308_membrane
21.44,1.59282e-06,60,FM308_membrane
21.46,1.4703e-06,60,FM308_membrane
21.48,1.65409e-06,60,FM308_membrane
21.5,9.802e-07,60,FM308_membrane
21.52,1.53156e-06,60,FM308_membrane
21.54,1.40904e-06,60,FM308_membrane
21.56,1.04146e-06,60,FM308_membrane
21.58,1.65409e-06,60,FM308_membrane
21.6,1.65409e-06,60,FM308_membrane
21.62,1.28651e-06,60,FM308_membrane
21.64,1.34777e-06,60,FM308_membrane
21.66,2.02166e-06,60,FM308_membrane
21.68,2.26671e-06,60,FM308_membrane
21.7,1.53156e-06,60,FM308_membrane
21.72,1.34777e-06,60,FM308_membrane
21.74,1.16399e-06,60,FM308_membrane
21.76,1.89914e-06,60,FM308_membrane
21.78,1.22525e-06,60,FM308_membrane
21.8,1.53156e-06,60,FM308_membrane
21.82,1.71535e-06,60,FM308_membrane
21.84,2.51176e-06,60,FM308_membrane
21.86,1.53156e-06,60,FM308_membrane
21.88,2.02166e-06,60,FM308_membrane
21.9,2.02166e-06,60,FM308_membrane
21.92,2.4505e-06,60,FM308_membrane
21.94,2.51176e-06,60,FM308_membrane
21.96,2.9406e-06,60,FM308_membrane
21.98,2.75681e-06,60,FM308_membrane
22.0,2.9406e-06,60,FM308_membrane
22.02,2.26671e-06,60,FM308_membrane
22.04,2.57302e-06,60,FM308_membrane
22.06,3.30817e-06,60,FM308_membrane
22.08,2.81807e-06,60,FM308_membrane
22.1,2.14419e-06,60,FM308_membrane
22.12,3.61449e-06,60,FM308_membrane
22.14,3.73701e-06,60,FM308_membrane
22.16,3.4307e-06,60,FM308_membrane
22.18,4.96226e-06,60,FM308_membrane
22.2,4.77847e-06,60,FM308_membrane
22.22,5.63615e-06,60,FM308_membrane
22.24,5.51362e-06,60,FM308_membrane
22.26,4.4109e-06,60,FM308_membrane
22.28,5.20731e-06,60,FM308_membrane
22.3,5.75867e-06,60,FM308_membrane
22.32,9.61821e-06,60,FM308_membrane
22.34,9.25063e-06,60,FM308_membrane
22.36,1.3294e-05,60,FM308_membrane
22.38,1.67247e-05,60,FM308_membrane
22.4,1.8195e-05,60,FM308_membrane
22.42,2.37698e-05,60,FM308_membrane
22.44,2.60365e-05,60,FM308_membrane
22.46,3.33268e-05,60,FM308_membrane
22.48,3.59611e-05,60,FM308_membrane
22.5,3.74926e-05,60,FM308_membrane
22.52,4.51504e-05,60,FM308_membrane
22.54,4.71721e-05,60,FM308_membrane
22.56,4.8091e-05,60,FM308_membrane
22.58,5.7648e-05,60,FM308_membrane
22.6,6.60409e-05,60,FM308_membrane
22.62,7.13095e-05,60,FM308_membrane
22.64,9.47118e-05,60,FM308_membrane
22.66,0.000138269,60,FM308_membrane
22.68,0.000276661,60,FM308_membrane
22.7,0.00188266,60,FM308_membrane
22.72,0.0214487,60,FM308_membrane
22.74,0.133772,60,FM308_membrane
22.76,0.0697558,60,FM308_membrane
22.78,0.00230727,60,FM308_membrane
22.8,0.000429021,60,FM308_membrane
22.82,0.000181214,60,FM308_membrane
22.84,0.000103043,60,FM308_membrane
22.86,6.38355e-05,60,FM308_membrane
22.88,4.61306e-05,60,FM308_membrane
22.9,3.24078e-05,60,FM308_membrane
22.92,2.475e-05,60,FM308_membrane
22.94,1.77049e-05,60,FM308_membrane
22.96,1.65409e-05,60,FM308_membrane
22.98,1.15173e-05,60,FM308_membrane
23.0,9.25063e-06,60,FM308_membrane
23.02,8.51548e-06,60,FM308_membrane
23.04,5.63615e-06,60,FM308_membrane
23.06,6.12625e-06,60,FM308_membrane
23.08,5.45236e-06,60,FM308_membrane
23.1,5.57488e-06,60,FM308_membrane
23.12,4.77847e-06,60,FM308_membrane
23.14,4.16585e-06,60,FM308_membrane
23.16,4.16585e-06,60,FM308_membrane
23.18,3.61449e-06,60,FM308_membrane
23.2,3.67575e-06,60,FM308_membrane
23.22,1.9604e-06,60,FM308_membrane
23.24,3.00186e-06,60,FM308_membrane
23.26,2.57302e-06,60,FM308_membrane
23.28,2.63429e-06,60,FM308_membrane
23.3,2.02166e-06,60,FM308_membrane
23.32,2.81807e-06,60,FM308_membrane
23.34,2.26671e-06,60,FM308_membrane
23.36,2.02166e-06,60,FM308_membrane
23.38,1.59282e-06,60,FM308_membrane
23.4,1.65409e-06,60,FM308_membrane
23.42,1.77661e-06,60,FM308_membrane
23.44,1.34777e-06,60,FM308_membrane
23.46,1.22525e-06,60,FM308_membrane
23.48,1.04146e-06,60,FM308_membrane
23.5,1.10272e-06,60,FM308_membrane
23.52,1.28651e-06,60,FM308_membrane
23.54,9.802e-07,60,FM308_membrane
23.56,8.57675e-07,60,FM308_membrane
23.58,1.40904e-06,60,FM308_membrane
23.6,9.18937e-07,60,FM308_membrane
23.62,7.3515e-07,60,FM308_membrane
23.64,1.04146e-06,60,FM308_membrane
23.66,6.12625e-07,60,FM308_membrane
23.68,9.18937e-07,60,FM308_membrane
23.7,6.12625e-07,60,FM308_membrane
23.72,9.802e-07,60,FM308_membrane
23.74,9.802e-07,60,FM308_membrane
23.76,7.3515e-07,60,FM308_membrane
23.78,4.901e-07,60,FM308_membrane
23.8,6.73887e-07,60,FM308_membrane
23.82,6.12625e-07,60,FM308_membrane
23.84,7.3515e-07,60,FM308_membrane
23.86,7.3515e-07,60,FM308_membrane
23.88,4.28837e-07,60,FM308_membrane
23.9,4.28837e-07,60,FM308_membrane
23.92,3.67575e-07,60,FM308_membrane
23.94,3.67575e-07,60,FM308_membrane
23.96,4.28837e-07,60,FM308_membrane
23.98,3.06312e-07,60,FM308_membrane
24.0,6.73887e-07,60,FM308_membrane
24.02,6.12625e-07,60,FM308_membrane
24.04,4.901e-07,60,FM308_membrane
24.06,5.51362e-07,60,FM308_membrane
24.08,4.28837e-07,60,FM308_membrane
24.1,1.83787e-07,60,FM308_membrane
24.12,2.4505e-07,60,FM308_membrane
24.14,5.51362e-07,60,FM308_membrane
24.16,3.67575e-07,60,FM308_membrane
24.18,4.901e-07,60,FM308_membrane
24.2,6.12625e-07,60,FM308_membrane
24.22,2.4505e-07,60,FM308_membrane
24.24,4.28837e-07,60,FM308_membrane
24.26,1.22525e-07,60,FM308_membrane
24.28,6.12625e-08,60,FM308_membrane
24.3,6.12625e-07,60,FM308_membrane
24.32,3.67575e-07,60,FM308_membrane
24.34,4.28837e-07,60,FM308_membrane
24.36,4.28837e-07,60,FM308_membrane
24.38,3.06312e-07,60,FM308_membrane
24.4,4.28837e-07,60,FM308_membrane
24.42,1.83787e-07,60,FM308_membrane
24.44,1.83787e-07,60,FM308_membrane
24.46,4.28837e-07,60,FM308_membrane
24.48,3.67575e-07,60,FM308_membrane
24.5,3.06312e-07,60,FM308_membrane
24.52,2.4505e-07,60,FM308_membrane
24.54,1.83787e-07,60,FM308_membrane
24.56,2.4505e-07,60,FM308_membrane
24.58,3.06312e-07,60,FM308_membrane
24.6,6.12625e-07,60,FM308_membrane
24.62,3.06312e-07,60,FM308_membrane
24.64,1.22525e-07,60,FM308_membrane
24.66,1.83787e-07,60,FM308_membrane
24.68,3.06312e-07,60,FM308_membrane
24.7,2.4505e-07,60,FM308_membrane
24.72,3.06312e-07,60,FM308_membrane
24.74,2.4505e-07,60,FM308_membrane
24.76,2.4505e-07,60,FM308_membrane
24.78,1.83787e-07,60,FM308_membrane
24.8,2.4505e-07,60,FM308_membrane
24.82,3.67575e-07,60,FM308_membrane
24.84,1.83787e-07,60,FM308_membrane
24.86,1.83787e-07,60,FM308_membrane
24.88,1.22525e-07,60,FM308_membrane
24.9,2.4505e-07,60,FM308_membrane
24.92,2.4505e-07,60,FM308_membrane
24.94,3.06312e-07,60,FM308_membrane
24.96,3.67575e-07,60,FM308_membrane
24.98,1.83787e-07,60,FM308_membrane
25.0,4.28837e-07,60,FM308_membrane
25.02,6.12625e-08,60,FM308_membrane
25.04,1.22525e-07,60,FM308_membrane
25.06,4.28837e-07,60,FM308_membrane
25.08,1.83787e-07,60,FM308_membrane
25.1,3.06312e-07,60,FM308_membrane
25.12,2.4505e-07,60,FM308_membrane
25.14,2.4505e-07,60,FM308_membrane
25.16,1.83787e-07,60,FM308_membrane
25.18,2.4505e-07,60,FM308_membrane
25.2,6.12625e-08,60,FM308_membrane
25.22,4.901e-07,60,FM308_membrane
25.24,2.4505e-07,60,FM308_membrane
25.26,1.83787e-07,60,FM308_membrane
25.28,1.83787e-07,60,FM308_membrane
25.3,3.06312e-07,60,FM308_membrane
25.32,2.4505e-07,60,FM308_membrane
25.34,1.22525e-07,60,FM308_membrane
25.36,3.06312e-07,60,FM308_membrane
25.38,1.83787e-07,60,FM308_membrane
25.4,3.67575e-07,60,FM308_membrane
25.42,2.4505e-07,60,FM308_membrane
25.44,3.06312e-07,60,FM308_membrane
25.46,3.06312e-07,60,FM308_membrane
25.48,6.12625e-08,60,FM308_membrane
25.5,1.83787e-07,60,FM308_membrane
25.52,2.4505e-07,60,FM308_membrane
25.54,1.83787e-07,60,FM308_membrane
25.56,1.22525e-07,60,FM308_membrane
25.58,1.22525e-07,60,FM308_membrane
25.6,2.4505e-07,60,FM308_membrane
25.62,6.12625e-08,60,FM308_membrane
25.64,3.06312e-07,60,FM308_membrane
25.66,3.67575e-07,60,FM308_membrane
25.68,3.06312e-07,60,FM308_membrane
25.7,3.67575e-07,60,FM308_membrane
25.72,2.4505e-07,60,FM308_membrane
25.74,1.22525e-07,60,FM308_membrane
25.76,6.12625e-08,60,FM308_membrane
25.78,1.83787e-07,60,FM308_membrane
25.8,1.83787e-07,60,FM308_membrane
25.82,1.83787e-07,60,FM308_membrane
25.84,2.4505e-07,60,FM308_membrane
25.86,1.83787e-07,60,FM308_membrane
25.88,1.22525e-07,60,FM308_membrane
25.9,1.22525e-07,60,FM308_membrane
25.92,2.4505e-07,60,FM308_membrane
25.94,2.4505e-07,60,FM308_membrane
25.96,3.06312e-07,60,FM308_membrane
25.98,1.83787e-07,60,FM308_membrane
26.0,1.83787e-07,60,FM308_membrane
26.02,1.22525e-07,60,FM308_membrane
26.04,1.83787e-07,60,FM308_membrane
26.06,1.22525e-07,60,FM308_membrane
26.08,1.22525e-07,60,FM308_membrane
26.1,1.22525e-07,60,FM308_membrane
26.12,3.06312e-07,60,FM308_membrane
26.14,1.83787e-07,60,FM308_membrane
26.16,2.4505e-07,60,FM308_membrane
26.18,1.22525e-07,60,FM308_membrane
26.2,1.22525e-07,60,FM308_membrane
26.22,1.83787e-07,60,FM308_membrane
26.24,4.28837e-07,60,FM308_membrane
26.26,6.12625e-08,60,FM308_membrane
26.28,6.12625e-08,60,FM308_membrane
26.3,1.83787e-07,60,FM308_membrane
26.32,2.4505e-07,60,FM308_membrane
26.34,1.22525e-07,60,FM308_membrane
26.36,1.83787e-07,60,FM308_membrane
26.38,3.06312e-07,60,FM308_membrane
26.4,1.83787e-07,60,FM308_membrane
26.42,1.22525e-07,60,FM308_membrane
26.44,6.12625e-08,60,FM308_membrane
26.46,4.28837e-07,60,FM308_membrane
26.48,1.22525e-07,60,FM308_membrane
26.5,2.4505e-07,60,FM308_membrane
26.52,1.22525e-07,60,FM308_membrane
26.54,1.83787e-07,60,FM308_membrane
26.56,2.4505e-07,60,FM308_membrane
26.58,3.06312e-07,60,FM308_membrane
26.6,6.12625e-08,60,FM308_membrane
26.62,2.4505e-07,60,FM308_membrane
26.64,3.67575e-07,60,FM308_membrane
26.66,2.4505e-07,60,FM308_membrane
26.68,3.06312e-07,60,FM308_membrane
26.7,1.22525e-07,60,FM308_membrane
26.72,3.67575e-07,60,FM308_membrane
26.74,1.22525e-07,60,FM308_membrane
26.76,3.06312e-07,60,FM308_membrane
26.78,0.0,60,FM308_membrane
26.8,3.06312e-07,60,FM308_membrane
26.82,1.83787e-07,60,FM308_membrane
26.84,2.4505e-07,60,FM308_membrane
26.86,6.12625e-08,60,FM308_membrane
26.88,3.06312e-07,60,FM308_membrane
26.9,1.22525e-07,60,FM308_membrane
26.92,1.83787e-07,60,FM308_membrane
26.94,1.22525e-07,60,FM308_membrane
26.96,1.22525e-07,60,FM308_membrane
26.98,2.4505e-07,60,FM308_membrane
27.0,1.83787e-07,60,FM308_membrane
27.02,1.22525e-07,60,FM308_membrane
27.04,4.28837e-07,60,FM308_membrane
27.06,1.83787e-07,60,FM308_membrane
27.08,1.22525e-07,60,FM308_membrane
27.1,4.28837e-07,60,FM308_membrane
27.12,3.06312e-07,60,FM308_membrane
27.14,0.0,60,FM308_membrane
27.16,1.83787e-07,60,FM308_membrane
27.18,3.06312e-07,60,FM308_membrane
27.2,3.06312e-07,60,FM308_membrane
27.22,3.06312e-07,60,FM308_membrane
27.24,2.4505e-07,60,FM308_membrane
27.26,3.67575e-07,60,FM308_membrane
27.28,1.83787e-07,60,FM308_membrane
27.3,6.12625e-08,60,FM308_membrane
27.32,2.4505e-07,60,FM308_membrane
27.34,2.4505e-07,60,FM308_membrane
27.36,3.67575e-07,60,FM308_membrane
27.38,6.12625e-08,60,FM308_membrane
27.4,6.12625e-08,60,FM308_membrane
27.42,4.28837e-07,60,FM308_membrane
27.44,1.22525e-07,60,FM308_membrane
27.46,1.83787e-07,60,FM308_membrane
27.48,3.06312e-07,60,FM308_membrane
27.5,1.83787e-07,60,FM308_membrane
27.52,1.83787e-07,60,FM308_membrane
27.54,2.4505e-07,60,FM308_membrane
27.56,2.4505e-07,60,FM308_membrane
27.58,4.28837e-07,60,FM308_membrane
27.6,6.12625e-08,60,FM308_membrane
27.62,1.22525e-07,60,FM308_membrane
27.64,4.28837e-07,60,FM308_membrane
27.66,3.67575e-07,60,FM308_membrane
27.68,6.12625e-08,60,FM308_membrane
27.7,2.4505e-07,60,FM308_membrane
27.72,1.22525e-07,60,FM308_membrane
27.74,1.83787e-07,60,FM308_membrane
27.76,3.06312e-07,60,FM308_membrane
27.78,6.12625e-08,60,FM308_membrane
27.8,1.83787e-07,60,FM308_membrane
27.82,1.83787e-07,60,FM308_membrane
27.84,4.28837e-07,60,FM308_membrane
27.86,1.83787e-07,60,FM308_membrane
27.88,2.4505e-07,60,FM308_membrane
27.9,1.22525e-07,60,FM308_membrane
27.92,1.22525e-07,60,FM308_membrane
27.94,6.12625e-08,60,FM308_membrane
27.96,3.67575e-07,60,FM308_membrane
27.98,2.4505e-07,60,FM308_membrane
28.0,3.06312e-07,60,FM308_membrane
28.02,2.4505e-07,60,FM308_membrane
28.04,3.06312e-07,60,FM308_membrane
28.06,2.4505e-07,60,FM308_membrane
28.08,3.67575e-07,60,FM308_membrane
28.1,3.06312e-07,60,FM308_membrane
28.12,3.67575e-07,60,FM308_membrane
28.14,1.83787e-07,60,FM308_membrane
28.16,3.06312e-07,60,FM308_membrane
28.18,1.83787e-07,60,FM308_membrane
28.2,1.22525e-07,60,FM308_membrane
28.22,1.22525e-07,60,FM308_membrane
28.24,1.83787e-07,60,FM308_membrane
28.26,1.83787e-07,60,FM308_membrane
28.28,2.4505e-07,60,FM308_membrane
28.3,1.83787e-07,60,FM308_membrane
28.32,1.83787e-07,60,FM308_membrane
28.34,1.83787e-07,60,FM308_membrane
28.36,2.4505e-07,60,FM308_membrane
28.38,6.12625e-08,60,FM308_membrane
28.4,1.22525e-07,60,FM308_membrane
28.42,1.83787e-07,60,FM308_membrane
28.44,1.83787e-07,60,FM308_membrane
28.46,1.83787e-07,60,FM308_membrane
28.48,4.28837e-07,60,FM308_membrane
28.5,1.22525e-07,60,FM308_membrane
28.52,1.83787e-07,60,FM308_membrane
28.54,1.22525e-07,60,FM308_membrane
28.56,1.83787e-07,60,FM308_membrane
28.58,6.12625e-08,60,FM308_membrane
28.6,1.22525e-07,60,FM308_membrane
28.62,2.4505e-07,60,FM308_membrane
28.64,2.4505e-07,60,FM308_membrane
28.66,1.83787e-07,60,FM308_membrane
28.68,2.4505e-07,60,FM308_membrane
28.7,3.67575e-07,60,FM308_membrane
28.72,3.67575e-07,60,FM308_membrane
28.74,1.22525e-07,60,FM308_membrane
28.76,2.4505e-07,60,FM308_membrane
28.78,3.06312e-07,60,FM308_membrane
28.8,3.06312e-07,60,FM308_membrane
28.82,3.06312e-07,60,FM308_membrane
28.84,2.4505e-07,60,FM308_membrane
28.86,1.83787e-07,60,FM308_membrane
28.88,3.06312e-07,60,FM308_membrane
28.9,2.4505e-07,60,FM308_membrane
28.92,2.4505e-07,60,FM308_membrane
28.94,1.22525e-07,60,FM308_membrane
28.96,2.4505e-07,60,FM308_membrane
28.98,1.22525e-07,60,FM308_membrane
29.0,1.83787e-07,60,FM308_membrane
29.02,4.28837e-07,60,FM308_membrane
29.04,3.67575e-07,60,FM308_membrane
29.06,3.67575e-07,60,FM308_membrane
29.08,1.83787e-07,60,FM308_membrane
29.1,3.06312e-07,60,FM308_membrane
29.12,3.06312e-07,60,FM308_membrane
29.14,3.06312e-07,60,FM308_membrane
29.16,2.4505e-07,60,FM308_membrane
29.18,1.83787e-07,60,FM308_membrane
29.2,3.67575e-07,60,FM308_membrane
29.22,1.83787e-07,60,FM308_membrane
29.24,2.4505e-07,60,FM308_membrane
29.26,3.06312e-07,60,FM308_membrane
29.28,1.83787e-07,60,FM308_membrane
29.3,2.4505e-07,60,FM308_membrane
29.32,3.06312e-07,60,FM308_membrane
29.34,2.4505e-07,60,FM308_membrane
29.36,3.06312e-07,60,FM308_membrane
29.38,6.12625e-08,60,FM308_membrane
29.4,1.22525e-07,60,FM308_membrane
29.42,3.67575e-07,60,FM308_membrane
29.44,3.06312e-07,60,FM308_membrane
29.46,2.4505e-07,60,FM308_membrane
29.48,1.22525e-07,60,FM308_membrane
29.5,6.12625e-08,60,FM308_membrane
29.52,1.83787e-07,60,FM308_membrane
29.54,1.83787e-07,60,FM308_membrane
29.56,1.83787e-07,60,FM308_membrane
29.58,2.4505e-07,60,FM308_membrane
29.6,1.83787e-07,60,FM308_membrane
29.62,6.12625e-08,60,FM308_membrane
29.64,3.06312e-07,60,FM308_membrane
29.66,6.12625e-08,60,FM308_membrane
29.68,1.83787e-07,60,FM308_membrane
29.7,2.4505e-07,60,FM308_membrane
29.72,3.06312e-07,60,FM308_membrane
29.74,3.06312e-07,60,FM308_membrane
29.76,2.4505e-07,60,FM308_membrane
29.78,3.06312e-07,60,FM308_membrane
29.8,1.22525e-07,60,FM308_membrane
29.82,1.22525e-07,60,FM308_membrane
29.84,1.83787e-07,60,FM308_membrane
29.86,3.06312e-07,60,FM308_membrane
29.88,5.51362e-07,60,FM308_membrane
29.9,3.06312e-07,60,FM308_membrane
29.92,1.83787e-07,60,FM308_membrane
29.94,1.83787e-07,60,FM308_membrane
29.96,5.51362e-07,60,FM308_membrane
29.98,3.06312e-07,60,FM308_membrane
30.0,3.67575e-07,60,FM308_membrane
30.02,1.83787e-07,60,FM308_membrane
30.04,6.12625e-08,60,FM308_membrane
30.06,1.83787e-07,60,FM308_membrane
30.08,2.4505e-07,60,FM308_membrane
30.1,1.22525e-07,60,FM308_membrane
30.12,1.83787e-07,60,FM308_membrane
30.14,1.83787e-07,60,FM308_membrane
30.16,1.22525e-07,60,FM308_membrane
30.18,0.0,60,FM308_membrane
30.2,3.67575e-07,60,FM308_membrane
30.22,3.67575e-07,60,FM308_membrane
30.24,3.67575e-07,60,FM308_membrane
30.26,3.06312e-07,60,FM308_membrane
30.28,1.22525e-07,60,FM308_membrane
30.3,1.83787e-07,60,FM308_membrane
30.32,3.06312e-07,60,FM308_membrane
30.34,2.4505e-07,60,FM308_membrane
30.36,3.06312e-07,60,FM308_membrane
30.38,1.22525e-07,60,FM308_membrane
30.4,3.67575e-07,60,FM308_membrane
30.42,1.83787e-07,60,FM308_membrane
30.44,3.06312e-07,60,FM308_membrane
30.46,6.12625e-08,60,FM308_membrane
30.48,1.83787e-07,60,FM308_membrane
30.5,1.83787e-07,60,FM308_membrane
30.52,5.51362e-07,60,FM308_membrane
30.54,1.83787e-07,60,FM308_membrane
30.56,2.4505e-07,60,FM308_membrane
30.58,2.4505e-07,60,FM308_membrane
30.6,1.22525e-07,60,FM308_membrane
30.62,1.83787e-07,60,FM308_membrane
30.64,6.12625e-07,60,FM308_membrane
30.66,1.22525e-07,60,FM308_membrane
30.68,2.4505e-07,60,FM308_membrane
30.7,1.83787e-07,60,FM308_membrane
30.72,6.73887e-07,60,FM308_membrane
30.74,1.22525e-07,60,FM308_membrane
30.76,2.4505e-07,60,FM308_membrane
30.78,3.06312e-07,60,FM308_membrane
30.8,2.4505e-07,60,FM308_membrane
30.82,1.83787e-07,60,FM308_membrane
30.84,2.4505e-07,60,FM308_membrane
30.86,1.83787e-07,60,FM308_membrane
30.88,3.06312e-07,60,FM308_membrane
30.9,3.06312e-07,60,FM308_membrane
30.92,2.4505e-07,60,FM308_membrane
30.94,2.4505e-07,60,FM308_membrane
30.96,1.83787e-07,60,FM308_membrane
30.98,2.4505e-07,60,FM308_membrane
31.0,1.22525e-07,60,FM308_membrane
31.02,3.06312e-07,60,FM308_membrane
31.04,3.06312e-07,60,FM308_membrane
31.06,3.06312e-07,60,FM308_membrane
31.08,1.22525e-07,60,FM308_membrane
31.1,3.06312e-07,60,FM308_membrane
31.12,1.22525e-07,60,FM308_membrane
31.14,1.83787e-07,60,FM308_membrane
31.16,2.4505e-07,60,FM308_membrane
31.18,3.67575e-07,60,FM308_membrane
31.2,2.4505e-07,60,FM308_membrane
31.22,1.83787e-07,60,FM308_membrane
31.24,2.4505e-07,60,FM308_membrane
31.26,2.4505e-07,60,FM308_membrane
31.28,3.67575e-07,60,FM308_membrane
31.3,1.83787e-07,60,FM308_membrane
31.32,2.4505e-07,60,FM308_membrane
31.34,3.67575e-07,60,FM308_membrane
31.36,6.73887e-07,60,FM308_membrane
31.38,2.4505e-07,60,FM308_membrane
31.4,3.06312e-07,60,FM308_membrane
31.42,1.83787e-07,60,FM308_membrane
31.44,6.12625e-08,60,FM308_membrane
31.46,1.22525e-07,60,FM308_membrane
31.48,1.22525e-07,60,FM308_membrane
31.5,1.22525e-07,60,FM308_membrane
31.52,1.22525e-07,60,FM308_membrane
31.54,1.83787e-07,60,FM308_membrane
31.56,3.67575e-07,60,FM308_membrane
31.58,1.22525e-07,60,FM308_membrane
31.6,0.0,60,FM308_membrane
31.62,3.06312e-07,60,FM308_membrane
31.64,3.67575e-07,60,FM308_membrane
31.66,2.4505e-07,60,FM308_membrane
31.68,2.4505e-07,60,FM308_membrane
31.7,4.901e-07,60,FM308_membrane
31.72,4.901e-07,60,FM308_membrane
31.74,1.22525e-07,60,FM308_membrane
31.76,3.06312e-07,60,FM308_membrane
31.78,3.06312e-07,60,FM308_membrane
31.8,1.83787e-07,60,FM308_membrane
31.82,3.06312e-07,60,FM308_membrane
31.84,3.06312e-07,60,FM308_membrane
31.86,1.22525e-07,60,FM308_membrane
31.88,3.06312e-07,60,FM308_membrane
31.9,3.06312e-07,60,FM308_membrane
31.92,2.4505e-07,60,FM308_membrane
31.94,5.51362e-07,60,FM308_membrane
31.96,2.4505e-07,60,FM308_membrane
31.98,3.67575e-07,60,FM308_membrane
32.0,3.06312e-07,60,FM308_membrane
32.02,3.06312e-07,60,FM308_membrane
32.04,1.83787e-07,60,FM308_membrane
32.06,6.12625e-08,60,FM308_membrane
32.08,1.83787e-07,60,FM308_membrane
32.1,2.4505e-07,60,FM308_membrane
32.12,2.4505e-07,60,FM308_membrane
32.14,3.67575e-07,60,FM308_membrane
32.16,3.67575e-07,60,FM308_membrane
32.18,1.22525e-07,60,FM308_membrane
32.2,2.4505e-07,60,FM308_membrane
32.22,6.12625e-08,60,FM308_membrane
32.24,3.06312e-07,60,FM308_membrane
32.26,3.06312e-07,60,FM308_membrane
32.28,4.28837e-07,60,FM308_membrane
32.3,3.06312e-07,60,FM308_membrane
32.32,1.22525e-07,60,FM308_membrane
32.34,1.83787e-07,60,FM308_membrane
32.36,1.83787e-07,60,FM308_membrane
32.38,3.06312e-07,60,FM308_membrane
32.4,1.22525e-07,60,FM308_membrane
32.42,2.4505e-07,60,FM308_membrane
32.44,2.4505e-07,60,FM308_membrane
32.46,2.4505e-07,60,FM308_membrane
32.48,2.4505e-07,60,FM308_membrane
32.5,6.12625e-08,60,FM308_membrane
[...]
47.48,1.26e-05,20,FM308_stack
47.5,9.42162e-06,20,FM308_stack
47.52,9.64865e-06,20,FM308_stack
47.54,7.71892e-06,20,FM308_stack
47.56,5.78919e-06,20,FM308_stack
47.58,7.03784e-06,20,FM308_stack
47.6,6.47027e-06,20,FM308_stack
47.62,1.11243e-05,20,FM308_stack
47.64,1.20324e-05,20,FM308_stack
47.66,1.39622e-05,20,FM308_stack
47.68,1.32811e-05,20,FM308_stack
47.7,8.4e-06,20,FM308_stack
47.72,1.01027e-05,20,FM308_stack
47.74,9.98919e-06,20,FM308_stack
47.76,9.30811e-06,20,FM308_stack
47.78,5.44865e-06,20,FM308_stack
47.8,5.56216e-06,20,FM308_stack
47.82,4.99459e-06,20,FM308_stack
47.84,6.12973e-06,20,FM308_stack
47.86,4.76757e-06,20,FM308_stack
47.88,6.35676e-06,20,FM308_stack
47.9,8.51351e-06,20,FM308_stack
47.92,9.76216e-06,20,FM308_stack
47.94,9.64865e-06,20,FM308_stack
47.96,8.28648e-06,20,FM308_stack
47.98,6.35676e-06,20,FM308_stack
48.0,6.24324e-06,20,FM308_stack
48.02,5.10811e-06,20,FM308_stack
48.04,5.33513e-06,20,FM308_stack
48.06,5.67567e-06,20,FM308_stack
48.08,5.22162e-06,20,FM308_stack
48.1,4.65405e-06,20,FM308_stack
48.12,5.44865e-06,20,FM308_stack
48.14,4.31351e-06,20,FM308_stack
48.16,5.67567e-06,20,FM308_stack
48.18,7.94594e-06,20,FM308_stack
48.2,6.47027e-06,20,FM308_stack
48.22,7.03784e-06,20,FM308_stack
48.24,4.31351e-06,20,FM308_stack
48.26,4.08649e-06,20,FM308_stack
48.28,3.97297e-06,20,FM308_stack
48.3,4.2e-06,20,FM308_stack
48.32,5.10811e-06,20,FM308_stack
48.34,4.65405e-06,20,FM308_stack
48.36,4.54054e-06,20,FM308_stack
48.38,5.22162e-06,20,FM308_stack
48.4,5.44865e-06,20,FM308_stack
48.42,5.9027e-06,20,FM308_stack
48.44,4.54054e-06,20,FM308_stack
48.46,4.08649e-06,20,FM308_stack
48.48,3.63243e-06,20,FM308_stack
48.5,4.76757e-06,20,FM308_stack
48.52,3.63243e-06,20,FM308_stack
48.54,2.61081e-06,20,FM308_stack
48.56,4.2e-06,20,FM308_stack
48.58,2.83784e-06,20,FM308_stack
48.6,5.44865e-06,20,FM308_stack
48.62,3.74594e-06,20,FM308_stack
48.64,4.76757e-06,20,FM308_stack
48.66,3.29189e-06,20,FM308_stack
48.68,2.61081e-06,20,FM308_stack
48.7,3.63243e-06,20,FM308_stack
48.72,3.17838e-06,20,FM308_stack
48.74,3.63243e-06,20,FM308_stack
48.76,2.27027e-06,20,FM308_stack
48.78,3.4054e-06,20,FM308_stack
48.8,3.29189e-06,20,FM308_stack
48.82,3.51892e-06,20,FM308_stack
48.84,3.29189e-06,20,FM308_stack
48.86,3.17838e-06,20,FM308_stack
48.88,3.17838e-06,20,FM308_stack
48.9,3.51892e-06,20,FM308_stack
48.92,2.61081e-06,20,FM308_stack
48.94,1.7027e-06,20,FM308_stack
48.96,1.92973e-06,20,FM308_stack
48.98,1.92973e-06,20,FM308_stack
49.0,1.7027e-06,20,FM308_stack
49.02,1.02162e-06,20,FM308_stack
49.04,2.27027e-06,20,FM308_stack
49.06,1.92973e-06,20,FM308_stack
49.08,2.83784e-06,20,FM308_stack
49.1,2.38378e-06,20,FM308_stack
49.12,2.61081e-06,20,FM308_stack
49.14,3.17838e-06,20,FM308_stack
49.16,2.27027e-06,20,FM308_stack
49.18,3.29189e-06,20,FM308_stack
49.2,2.38378e-06,20,FM308_stack
49.22,7.94594e-07,20,FM308_stack
49.24,1.58919e-06,20,FM308_stack
49.26,2.72432e-06,20,FM308_stack
49.28,2.04324e-06,20,FM308_stack
49.3,2.04324e-06,20,FM308_stack
49.32,2.15676e-06,20,FM308_stack
49.34,1.81622e-06,20,FM308_stack
49.36,2.15676e-06,20,FM308_stack
49.38,1.7027e-06,20,FM308_stack
49.4,1.81622e-06,20,FM308_stack
49.42,1.58919e-06,20,FM308_stack
49.44,1.13513e-06,20,FM308_stack
49.46,2.27027e-06,20,FM308_stack
49.48,1.47568e-06,20,FM308_stack
49.5,1.92973e-06,20,FM308_stack
49.52,1.36216e-06,20,FM308_stack
49.54,1.13513e-06,20,FM308_stack
49.56,2.15676e-06,20,FM308_stack
49.58,1.47568e-06,20,FM308_stack
49.6,1.81622e-06,20,FM308_stack
49.62,1.24865e-06,20,FM308_stack
49.64,1.58919e-06,20,FM308_stack
49.66,1.58919e-06,20,FM308_stack
49.68,1.47568e-06,20,FM308_stack
49.7,7.94594e-07,20,FM308_stack
49.72,1.02162e-06,20,FM308_stack
49.74,1.13513e-06,20,FM308_stack
49.76,1.02162e-06,20,FM308_stack
49.78,7.94594e-07,20,FM308_stack
49.8,1.47568e-06,20,FM308_stack
49.82,1.7027e-06,20,FM308_stack
49.84,1.02162e-06,20,FM308_stack
49.86,1.24865e-06,20,FM308_stack
49.88,6.81081e-07,20,FM308_stack
49.9,1.47568e-06,20,FM308_stack
49.92,1.58919e-06,20,FM308_stack
49.94,7.94594e-07,20,FM308_stack
49.96,9.08108e-07,20,FM308_stack
49.98,7.94594e-07,20,FM308_stack
50.0,5.67567e-07,20,FM308_stack
50.02,1.13513e-06,20,FM308_stack
50.04,1.92973e-06,20,FM308_stack
50.06,1.36216e-06,20,FM308_stack
50.08,9.08108e-07,20,FM308_stack
50.1,1.02162e-06,20,FM308_stack
50.12,6.81081e-07,20,FM308_stack
50.14,4.54054e-07,20,FM308_stack
50.16,5.67567e-07,20,FM308_stack
50.18,7.94594e-07,20,FM308_stack
50.2,9.08108e-07,20,FM308_stack
50.22,3.4054e-07,20,FM308_stack
50.24,5.67567e-07,20,FM308_stack
50.26,1.13513e-06,20,FM308_stack
50.28,5.67567e-07,20,FM308_stack
50.3,7.94594e-07,20,FM308_stack
50.32,7.94594e-07,20,FM308_stack
50.34,6.81081e-07,20,FM308_stack
50.36,3.4054e-07,20,FM308_stack
50.38,3.4054e-07,20,FM308_stack
50.4,3.4054e-07,20,FM308_stack
50.42,5.67567e-07,20,FM308_stack
50.44,6.81081e-07,20,FM308_stack
50.46,4.54054e-07,20,FM308_stack
50.48,6.81081e-07,20,FM308_stack
50.5,3.4054e-07,20,FM308_stack
50.52,7.94594e-07,20,FM308_stack
50.54,3.4054e-07,20,FM308_stack
50.56,3.4054e-07,20,FM308_stack
50.58,1.02162e-06,20,FM308_stack
50.6,1.02162e-06,20,FM308_stack
50.62,5.67567e-07,20,FM308_stack
50.64,5.67567e-07,20,FM308_stack
50.66,7.94594e-07,20,FM308_stack
50.68,4.54054e-07,20,FM308_stack
50.7,4.54054e-07,20,FM308_stack
50.72,4.54054e-07,20,FM308_stack
50.74,2.27027e-07,20,FM308_stack
50.76,3.4054e-07,20,FM308_stack
50.78,5.67567e-07,20,FM308_stack
50.8,5.67567e-07,20,FM308_stack
50.82,2.27027e-07,20,FM308_stack
50.84,3.4054e-07,20,FM308_stack
50.86,1.13513e-07,20,FM308_stack
50.88,5.67567e-07,20,FM308_stack
50.9,1.13513e-07,20,FM308_stack
50.92,5.67567e-07,20,FM308_stack
50.94,6.81081e-07,20,FM308_stack
50.96,1.13513e-07,20,FM308_stack
50.98,7.94594e-07,20,FM308_stack
51.0,4.54054e-07,20,FM308_stack
51.02,4.54054e-07,20,FM308_stack
51.04,5.67567e-07,20,FM308_stack
51.06,3.4054e-07,20,FM308_stack
51.08,4.54054e-07,20,FM308_stack
51.1,1.13513e-07,20,FM308_stack
51.12,3.4054e-07,20,FM308_stack
51.14,4.54054e-07,20,FM308_stack
51.16,6.81081e-07,20,FM308_stack
51.18,5.67567e-07,20,FM308_stack
51.2,4.54054e-07,20,FM308_stack
51.22,4.54054e-07,20,FM308_stack
51.24,3.4054e-07,20,FM308_stack
51.26,5.67567e-07,20,FM308_stack
51.28,5.67567e-07,20,FM308_stack
51.3,6.81081e-07,20,FM308_stack
51.32,6.81081e-07,20,FM308_stack
51.34,4.54054e-07,20,FM308_stack
51.36,4.54054e-07,20,FM308_stack
51.38,5.67567e-07,20,FM308_stack
51.4,2.27027e-07,20,FM308_stack
51.42,4.54054e-07,20,FM308_stack
51.44,3.4054e-07,20,FM308_stack
51.46,1.13513e-07,20,FM308_stack
51.48,1.13513e-07,20,FM308_stack
51.5,4.54054e-07,20,FM308_stack
51.52,3.4054e-07,20,FM308_stack
51.54,1.13513e-07,20,FM308_stack
51.56,6.81081e-07,20,FM308_stack
51.58,1.13513e-07,20,FM308_stack
51.6,5.67567e-07,20,FM308_stack
51.62,2.27027e-07,20,FM308_stack
51.64,0.0,20,FM308_stack
51.66,4.54054e-07,20,FM308_stack
51.68,3.4054e-07,20,FM308_stack
51.7,3.4054e-07,20,FM308_stack
51.72,5.67567e-07,20,FM308_stack
51.74,2.27027e-07,20,FM308_stack
51.76,7.94594e-07,20,FM308_stack
51.78,4.54054e-07,20,FM308_stack
51.8,2.27027e-07,20,FM308_stack
51.82,4.54054e-07,20,FM308_stack
51.84,3.4054e-07,20,FM308_stack
51.86,1.13513e-07,20,FM308_stack
51.88,5.67567e-07,20,FM308_stack
51.9,4.54054e-07,20,FM308_stack
51.92,2.27027e-07,20,FM308_stack
51.94,3.4054e-07,20,FM308_stack
51.96,5.67567e-07,20,FM308_stack
51.98,3.4054e-07,20,FM308_stack
52.0,3.4054e-07,20,FM308_stack
52.02,5.67567e-07,20,FM308_stack
52.04,4.54054e-07,20,FM308_stack
52.06,3.4054e-07,20,FM308_stack
52.08,3.4054e-07,20,FM308_stack
52.1,4.54054e-07,20,FM308_stack
52.12,3.4054e-07,20,FM308_stack
52.14,4.54054e-07,20,FM308_stack
52.16,3.4054e-07,20,FM308_stack
52.18,2.27027e-07,20,FM308_stack
52.2,6.81081e-07,20,FM308_stack
52.22,4.54054e-07,20,FM308_stack
52.24,1.02162e-06,20,FM308_stack
52.26,5.67567e-07,20,FM308_stack
52.28,2.27027e-07,20,FM308_stack
52.3,2.27027e-07,20,FM308_stack
52.32,2.27027e-07,20,FM308_stack
52.34,3.4054e-07,20,FM308_stack
52.36,3.4054e-07,20,FM308_stack
52.38,2.27027e-07,20,FM308_stack
52.4,3.4054e-07,20,FM308_stack
52.42,4.54054e-07,20,FM308_stack
52.44,4.54054e-07,20,FM308_stack
52.46,2.27027e-07,20,FM308_stack
52.48,7.94594e-07,20,FM308_stack
52.5,1.13513e-07,20,FM308_stack
52.52,3.4054e-07,20,FM308_stack
52.54,6.81081e-07,20,FM308_stack
52.56,3.4054e-07,20,FM308_stack
52.58,2.27027e-07,20,FM308_stack
52.6,5.67567e-07,20,FM308_stack
52.62,3.4054e-07,20,FM308_stack
52.64,4.54054e-07,20,FM308_stack
52.66,5.67567e-07,20,FM308_stack
52.68,5.67567e-07,20,FM308_stack
52.7,3.4054e-07,20,FM308_stack
52.72,3.4054e-07,20,FM308_stack
52.74,0.0,20,FM308_stack
52.76,2.27027e-07,20,FM308_stack
52.78,2.27027e-07,20,FM308_stack
52.8,4.54054e-07,20,FM308_stack
52.82,3.4054e-07,20,FM308_stack
52.84,6.81081e-07,20,FM308_stack
52.86,1.13513e-07,20,FM308_stack
52.88,2.27027e-07,20,FM308_stack
52.9,1.13513e-07,20,FM308_stack
52.92,3.4054e-07,20,FM308_stack
52.94,3.4054e-07,20,FM308_stack
52.96,6.81081e-07,20,FM308_stack
52.98,3.4054e-07,20,FM308_stack
53.0,3.4054e-07,20,FM308_stack
53.02,2.27027e-07,20,FM308_stack
53.04,2.27027e-07,20,FM308_stack
53.06,3.4054e-07,20,FM308_stack
53.08,1.13513e-07,20,FM308_stack
53.1,2.27027e-07,20,FM308_stack
53.12,3.4054e-07,20,FM308_stack
53.14,9.08108e-07,20,FM308_stack
53.16,2.27027e-07,20,FM308_stack
53.18,3.4054e-07,20,FM308_stack
53.2,2.27027e-07,20,FM308_stack
53.22,3.4054e-07,20,FM308_stack
53.24,2.27027e-07,20,FM308_stack
53.26,5.67567e-07,20,FM308_stack
53.28,1.13513e-07,20,FM308_stack
53.3,5.67567e-07,20,FM308_stack
53.32,5.67567e-07,20,FM308_stack
53.34,3.4054e-07,20,FM308_stack
53.36,2.27027e-07,20,FM308_stack
53.38,2.27027e-07,20,FM308_stack
53.4,4.54054e-07,20,FM308_stack
53.42,5.67567e-07,20,FM308_stack
53.44,4.54054e-07,20,FM308_stack
53.46,6.81081e-07,20,FM308_stack
53.48,4.54054e-07,20,FM308_stack
53.5,3.4054e-07,20,FM308_stack
53.52,2.27027e-07,20,FM308_stack
53.54,3.4054e-07,20,FM308_stack
53.56,5.67567e-07,20,FM308_stack
53.58,1.13513e-07,20,FM308_stack
53.6,5.67567e-07,20,FM308_stack
53.62,3.4054e-07,20,FM308_stack
53.64,3.4054e-07,20,FM308_stack
53.66,5.67567e-07,20,FM308_stack
53.68,1.13513e-07,20,FM308_stack
53.7,2.27027e-07,20,FM308_stack
53.72,2.27027e-07,20,FM308_stack
53.74,3.4054e-07,20,FM308_stack
53.76,1.13513e-07,20,FM308_stack
53.78,4.54054e-07,20,FM308_stack
53.8,2.27027e-07,20,FM308_stack
53.82,2.27027e-07,20,FM308_stack
53.84,2.27027e-07,20,FM308_stack
53.86,4.54054e-07,20,FM308_stack
53.88,3.4054e-07,20,FM308_stack
53.9,4.54054e-07,20,FM308_stack
53.92,2.27027e-07,20,FM308_stack
53.94,3.4054e-07,20,FM308_stack
53.96,4.54054e-07,20,FM308_stack
53.98,5.67567e-07,20,FM308_stack
54.0,1.13513e-07,20,FM308_stack
54.02,2.27027e-07,20,FM308_stack
54.04,2.27027e-07,20,FM308_stack
54.06,2.27027e-07,20,FM308_stack
54.08,1.13513e-07,20,FM308_stack
54.1,1.13513e-07,20,FM308_stack
54.12,1.13513e-07,20,FM308_stack
54.14,1.13513e-07,20,FM308_stack
54.16,3.4054e-07,20,FM308_stack
54.18,2.27027e-07,20,FM308_stack
54.2,4.54054e-07,20,FM308_stack
54.22,3.4054e-07,20,FM308_stack
54.24,0.0,20,FM308_stack
54.26,1.13513e-07,20,FM308_stack
54.28,1.13513e-07,20,FM308_stack
54.3,2.27027e-07,20,FM308_stack
54.32,1.13513e-07,20,FM308_stack
54.34,3.4054e-07,20,FM308_stack
54.36,3.4054e-07,20,FM308_stack
54.38,3.4054e-07,20,FM308_stack
54.4,1.13513e-07,20,FM308_stack
54.42,1.13513e-07,20,FM308_stack
54.44,2.27027e-07,20,FM308_stack
54.46,1.13513e-07,20,FM308_stack
54.48,2.27027e-07,20,FM308_stack
54.5,1.13513e-07,20,FM308_stack
54.52,2.27027e-07,20,FM308_stack
54.54,2.27027e-07,20,FM308_stack
54.56,1.13513e-07,20,FM308_stack
54.58,1.13513e-07,20,FM308_stack
54.6,1.13513e-07,20,FM308_stack
54.62,1.13513e-07,20,FM308_stack
54.64,1.13513e-07,20,FM308_stack
54.66,3.4054e-07,20,FM308_stack
54.68,2.27027e-07,20,FM308_stack
54.7,0.0,20,FM308_stack
54.72,3.4054e-07,20,FM308_stack
54.74,1.13513e-07,20,FM308_stack
54.76,2.27027e-07,20,FM308_stack
54.78,1.13513e-07,20,FM308_stack
54.8,2.27027e-07,20,FM308_stack
54.82,1.13513e-07,20,FM308_stack
54.84,1.13513e-07,20,FM308_stack
54.86,2.27027e-07,20,FM308_stack
54.88,1.13513e-07,20,FM308_stack
54.9,4.54054e-07,20,FM308_stack
54.92,1.13513e-07,20,FM308_stack
54.94,3.4054e-07,20,FM308_stack
54.96,2.27027e-07,20,FM308_stack
54.98,1.13513e-07,20,FM308_stack
55.0,2.27027e-07,20,FM308_stack
55.02,4.54054e-07,20,FM308_stack
55.04,3.4054e-07,20,FM308_stack
55.06,3.4054e-07,20,FM308_stack
55.08,4.54054e-07,20,FM308_stack
55.1,4.54054e-07,20,FM308_stack
55.12,0.0,20,FM308_stack
55.14,5.67567e-07,20,FM308_stack
55.16,1.13513e-07,20,FM308_stack
55.18,2.27027e-07,20,FM308_stack
55.2,0.0,20,FM308_stack
55.22,3.4054e-07,20,FM308_stack
55.24,5.67567e-07,20,FM308_stack
55.26,2.27027e-07,20,FM308_stack
55.28,1.13513e-07,20,FM308_stack
55.3,1.13513e-07,20,FM308_stack
55.32,0.0,20,FM308_stack
55.34,3.4054e-07,20,FM308_stack
55.36,0.0,20,FM308_stack
55.38,1.13513e-07,20,FM308_stack
55.4,1.13513e-07,20,FM308_stack
55.42,4.54054e-07,20,FM308_stack
55.44,1.13513e-07,20,FM308_stack
55.46,1.13513e-07,20,FM308_stack
55.48,5.67567e-07,20,FM308_stack
55.5,2.27027e-07,20,FM308_stack
55.52,1.13513e-07,20,FM308_stack
55.54,0.0,20,FM308_stack
55.56,2.27027e-07,20,FM308_stack
55.58,1.13513e-07,20,FM308_stack
55.6,5.67567e-07,20,FM308_stack
55.62,3.4054e-07,20,FM308_stack
55.64,3.4054e-07,20,FM308_stack
55.66,3.4054e-07,20,FM308_stack
55.68,0.0,20,FM308_stack
55.7,1.13513e-07,20,FM308_stack
55.72,1.13513e-07,20,FM308_stack
55.74,3.4054e-07,20,FM308_stack
55.76,6.81081e-07,20,FM308_stack
55.78,2.27027e-07,20,FM308_stack
55.8,3.4054e-07,20,FM308_stack
55.82,0.0,20,FM308_stack
55.84,5.67567e-07,20,FM308_stack
55.86,0.0,20,FM308_stack
55.88,1.13513e-07,20,FM308_stack
55.9,1.13513e-07,20,FM308_stack
55.92,2.27027e-07,20,FM308_stack
55.94,3.4054e-07,20,FM308_stack
55.96,1.13513e-07,20,FM308_stack
55.98,1.13513e-07,20,FM308_stack
56.0,2.27027e-07,20,FM308_stack
56.02,2.27027e-07,20,FM308_stack
56.04,0.0,20,FM308_stack
56.06,1.13513e-07,20,FM308_stack
56.08,5.67567e-07,20,FM308_stack
56.1,2.27027e-07,20,FM308_stack
56.12,3.4054e-07,20,FM308_stack
56.14,2.27027e-07,20,FM308_stack
56.16,0.0,20,FM308_stack
56.18,0.0,20,FM308_stack
56.2,2.27027e-07,20,FM308_stack
56.22,3.4054e-07,20,FM308_stack
56.24,0.0,20,FM308_stack
56.26,6.81081e-07,20,FM308_stack
56.28,3.4054e-07,20,FM308_stack
56.3,3.4054e-07,20,FM308_stack
56.32,0.0,20,FM308_stack
56.34,1.13513e-07,20,FM308_stack
56.36,2.27027e-07,20,FM308_stack
56.38,0.0,20,FM308_stack
56.4,5.67567e-07,20,FM308_stack
56.42,1.13513e-07,20,FM308_stack
56.44,2.27027e-07,20,FM308_stack
56.46,3.4054e-07,20,FM308_stack
56.48,3.4054e-07,20,FM308_stack
56.5,4.54054e-07,20,FM308_stack
56.52,1.13513e-07,20,FM308_stack
56.54,0.0,20,FM308_stack
56.56,0.0,20,FM308_stack
56.58,4.54054e-07,20,FM308_stack
56.6,3.4054e-07,20,FM308_stack
56.62,3.4054e-07,20,FM308_stack
56.64,1.13513e-07,20,FM308_stack
56.66,0.0,20,FM308_stack
56.68,5.67567e-07,20,FM308_stack
56.7,3.4054e-07,20,FM308_stack
56.72,1.13513e-07,20,FM308_stack
56.74,1.13513e-07,20,FM308_stack
56.76,1.13513e-07,20,FM308_stack
56.78,2.27027e-07,20,FM308_stack
56.8,1.13513e-07,20,FM308_stack
56.82,0.0,20,FM308_stack
56.84,0.0,20,FM308_stack
56.86,4.54054e-07,20,FM308_stack
56.88,3.4054e-07,20,FM308_stack
56.9,2.27027e-07,20,FM308_stack
56.92,1.13513e-07,20,FM308_stack
56.94,1.13513e-07,20,FM308_stack
56.96,0.0,20,FM308_stack
56.98,1.13513e-07,20,FM308_stack
57.0,0.0,20,FM308_stack
57.02,1.13513e-07,20,FM308_stack
57.04,3.4054e-07,20,FM308_stack
57.06,1.13513e-07,20,FM308_stack
57.08,3.4054e-07,20,FM308_stack
57.1,1.13513e-07,20,FM308_stack
57.12,0.0,20,FM308_stack
57.14,0.0,20,FM308_stack
57.16,4.54054e-07,20,FM308_stack
57.18,1.13513e-07,20,FM308_stack
57.2,1.13513e-07,20,FM308_stack
57.22,2.27027e-07,20,FM308_stack
57.24,1.13513e-07,20,FM308_stack
57.26,1.13513e-07,20,FM308_stack
57.28,4.54054e-07,20,FM308_stack
57.3,0.0,20,FM308_stack
57.32,0.0,20,FM308_stack
57.34,2.27027e-07,20,FM308_stack
57.36,0.0,20,FM308_stack
57.38,4.54054e-07,20,FM308_stack
57.4,3.4054e-07,20,FM308_stack
57.42,1.13513e-07,20,FM308_stack
57.44,2.27027e-07,20,FM308_stack
57.46,0.0,20,FM308_stack
57.48,1.13513e-07,20,FM308_stack
57.5,0.0,20,FM308_stack
57.52,5.67567e-07,20,FM308_stack
57.54,1.13513e-07,20,FM308_stack
57.56,3.4054e-07,20,FM308_stack
57.58,3.4054e-07,20,FM308_stack
57.6,1.13513e-07,20,FM308_stack
57.62,0.0,20,FM308_stack
57.64,2.27027e-07,20,FM308_stack
57.66,2.27027e-07,20,FM308_stack
57.68,3.4054e-07,20,FM308_stack
57.7,0.0,20,FM308_stack
57.72,1.13513e-07,20,FM308_stack
57.74,0.0,20,FM308_stack
57.76,1.13513e-07,20,FM308_stack
57.78,2.27027e-07,20,FM308_stack
57.8,2.27027e-07,20,FM308_stack
57.82,2.27027e-07,20,FM308_stack
57.84,0.0,20,FM308_stack
57.86,0.0,20,FM308_stack
57.88,1.13513e-07,20,FM308_stack
57.9,1.13513e-07,20,FM308_stack
57.92,0.0,20,FM308_stack
57.94,2.27027e-07,20,FM308_stack
57.96,2.27027e-07,20,FM308_stack
57.98,0.0,20,FM308_stack
58.0,4.54054e-07,20,FM308_stack
58.02,3.4054e-07,20,FM308_stack
58.04,1.13513e-07,20,FM308_stack
58.06,1.13513e-07,20,FM308_stack
58.08,2.27027e-07,20,FM308_stack
58.1,2.27027e-07,20,FM308_stack
58.12,0.0,20,FM308_stack
58.14,2.27027e-07,20,FM308_stack
58.16,2.27027e-07,20,FM308_stack
58.18,2.27027e-07,20,FM308_stack
58.2,1.13513e-07,20,FM308_stack
58.22,0.0,20,FM308_stack
58.24,1.13513e-07,20,FM308_stack
58.26,1.13513e-07,20,FM308_stack
58.28,2.27027e-07,20,FM308_stack
58.3,0.0,20,FM308_stack
58.32,1.13513e-07,20,FM308_stack
58.34,1.13513e-07,20,FM308_stack
58.36,2.27027e-07,20,FM308_stack
58.38,3.4054e-07,20,FM308_stack
58.4,1.13513e-07,20,FM308_stack
58.42,2.27027e-07,20,FM308_stack
58.44,2.27027e-07,20,FM308_stack
58.46,4.54054e-07,20,FM308_stack
58.48,2.27027e-07,20,FM308_stack
58.5,1.13513e-07,20,FM308_stack
58.52,1.13513e-07,20,FM308_stack
58.54,1.13513e-07,20,FM308_stack
58.56,4.54054e-07,20,FM308_stack
58.58,3.4054e-07,20,FM308_stack
58.6,0.0,20,FM308_stack
58.62,0.0,20,FM308_stack
58.64,3.4054e-07,20,FM308_stack
58.66,1.13513e-07,20,FM308_stack
58.68,2.27027e-07,20,FM308_stack
58.7,1.13513e-07,20,FM308_stack
58.72,2.27027e-07,20,FM308_stack
58.74,0.0,20,FM308_stack
58.76,2.27027e-07,20,FM308_stack
58.78,3.4054e-07,20,FM308_stack
58.8,0.0,20,FM308_stack
58.82,2.27027e-07,20,FM308_stack
58.84,0.0,20,FM308_stack
58.86,1.13513e-07,20,FM308_stack
58.88,2.27027e-07,20,FM308_stack
58.9,2.27027e-07,20,FM308_stack
58.92,2.27027e-07,20,FM308_stack
58.94,2.27027e-07,20,FM308_stack
58.96,2.27027e-07,20,FM308_stack
58.98,1.13513e-07,20,FM308_stack
59.0,2.27027e-07,20,FM308_stack
59.02,1.13513e-07,20,FM308_stack
59.04,3.4054e-07,20,FM308_stack
59.06,3.4054e-07,20,FM308_stack
59.08,0.0,20,FM308_stack
59.1,3.4054e-07,20,FM308_stack
59.12,3.4054e-07,20,FM308_stack
59.14,2.27027e-07,20,FM308_stack
59.16,4.54054e-07,20,FM308_stack
59.18,1.13513e-07,20,FM308_stack
59.2,3.4054e-07,20,FM308_stack
59.22,2.27027e-07,20,FM308_stack
59.24,3.4054e-07,20,FM308_stack
59.26,2.27027e-07,20,FM308_stack
59.28,3.4054e-07,20,FM308_stack
59.3,0.0,20,FM308_stack
59.32,3.4054e-07,20,FM308_stack
59.34,1.13513e-07,20,FM308_stack
59.36,0.0,20,FM308_stack
59.38,3.4054e-07,20,FM308_stack
59.4,3.4054e-07,20,FM308_stack
59.42,2.27027e-07,20,FM308_stack
59.44,1.13513e-07,20,FM308_stack
59.46,2.27027e-07,20,FM308_stack
59.48,1.13513e-07,20,FM308_stack
59.5,2.27027e-07,20,FM308_stack
59.52,0.0,20,FM308_stack
59.54,3.4054e-07,20,FM308_stack
59.56,3.4054e-07,20,FM308_stack
59.58,1.13513e-07,20,FM308_stack
59.6,3.4054e-07,20,FM308_stack
59.62,2.27027e-07,20,FM308_stack
59.64,0.0,20,FM308_stack
59.66,2.27027e-07,20,FM308_stack
59.68,1.13513e-07,20,FM308_stack
59.7,1.13513e-07,20,FM308_stack
59.72,4.54054e-07,20,FM308_stack
59.74,3.4054e-07,20,FM308_stack
59.76,2.27027e-07,20,FM308_stack
59.78,2.27027e-07,20,FM308_stack
59.8,2.27027e-07,20,FM308_stack
59.82,0.0,20,FM308_stack
59.84,1.13513e-07,20,FM308_stack
59.86,0.0,20,FM308_stack
59.88,0.0,20,FM308_stack
59.9,2.27027e-07,20,FM308_stack
59.92,0.0,20,FM308_stack
59.94,2.27027e-07,20,FM308_stack
59.96,1.13513e-07,20,FM308_stack
59.98,3.4054e-07,20,FM308_stack
60.0,5.67567e-07,20,FM308_stack