File: src/acoustic_resonators/xrays/processed_data/xrd_temperature.csv
temperature,number,2theta,lattice_spacing,intensity,norm_intensity,log_intensity,best_fit
750.0,15,43.6189,0.414674,1.0,7.57441e-07,0.382777,0.19039
750.0,15,43.6989,0.413952,0.833333,6.31201e-07,0.303595,0.219427
750.0,15,43.7789,0.413232,1.0,7.57441e-07,0.382777,0.249486
750.0,15,43.8589,0.412516,0.833333,6.31201e-07,0.303595,0.280643
750.0,15,43.9389,0.411802,1.0,7.57441e-07,0.382777,0.312985
750.0,15,44.0189,0.41109,1.0,7.57441e-07,0.382777,0.346607
750.0,15,44.0989,0.410382,2.0,1.51488e-06,0.683807,0.38162
750.0,15,44.1789,0.409676,1.33333,1.00992e-06,0.507715,0.418147
750.0,15,44.2589,0.408972,0.833333,6.31201e-07,0.303595,0.456333
750.0,15,44.3389,0.408271,0.833333,6.31201e-07,0.303595,0.496342
750.0,15,44.4189,0.407573,1.16667,8.83682e-07,0.449723,0.538369
750.0,15,44.4989,0.406878,1.66667,1.2624e-06,0.604625,0.582641
750.0,15,44.5789,0.406184,2.16667,1.64112e-06,0.718569,0.629432
750.0,15,44.6589,0.405494,2.0,1.51488e-06,0.683807,0.679074
750.0,15,44.7389,0.404806,3.16667,2.39856e-06,0.883379,0.731976
750.0,15,44.8189,0.404121,3.66667,2.77729e-06,0.947048,0.788659
750.0,15,44.8989,0.403438,2.33333,1.76736e-06,0.750753,0.849856
750.0,15,44.9789,0.402757,3.0,2.27232e-06,0.859898,0.916968
750.0,15,45.0589,0.402079,5.16667,3.91345e-06,1.09599,0.994022
750.0,15,45.1389,0.401404,4.66667,3.53473e-06,1.05178,1.09273
750.0,15,45.2189,0.400731,6.66667,5.04961e-06,1.20669,1.23503
750.0,15,45.2989,0.40006,7.66667,5.80705e-06,1.26738,1.43231
750.0,15,45.3789,0.399392,19.0,1.43914e-05,1.66153,1.65615
750.0,15,45.4589,0.398726,30.1667,2.28495e-05,1.8623,1.85809
750.0,15,45.5389,0.398063,42.6667,3.23175e-05,2.01287,1.99999
750.0,15,45.6189,0.397402,41.8333,3.16863e-05,2.0043,2.04842
750.0,15,45.6989,0.396744,48.5,3.67359e-05,2.06852,2.03054
750.0,15,45.7789,0.396088,57.1667,4.33004e-05,2.13992,2.04692
750.0,15,45.8589,0.395434,73.0,5.52932e-05,2.2461,2.18239
750.0,15,45.9389,0.394782,113.5,8.59696e-05,2.43777,2.47439
750.0,15,46.0189,0.394133,496.167,0.000375817,3.0784,3.00273
750.0,15,46.0989,0.393487,58332.7,0.0441836,5.14869,5.03886
750.0,15,46.1789,0.392842,1125.17,0.000852248,3.43399,3.28958
750.0,15,46.2589,0.3922,161.167,0.000122074,2.59005,2.60852
750.0,15,46.3389,0.39156,55.5,4.2038e-05,2.12707,2.23215
750.0,15,46.4189,0.390922,30.0,2.27232e-05,1.8599,1.97105
750.0,15,46.4989,0.390287,20.5,1.55275e-05,1.69453,1.77104
750.0,15,46.5789,0.389654,17.5,1.32552e-05,1.62581,1.60892
750.0,15,46.6589,0.389023,12.8333,9.7205e-06,1.49112,1.47261
750.0,15,46.7389,0.388395,10.6667,8.07937e-06,1.41081,1.35501
750.0,15,46.8189,0.387768,7.16667,5.42833e-06,1.23809,1.2516
750.0,15,46.8989,0.387144,7.83333,5.93329e-06,1.27672,1.15931
750.0,15,46.9789,0.386522,4.66667,3.53473e-06,1.05178,1.07598
750.0,15,47.0589,0.385902,6.33333,4.79713e-06,1.18441,1.00002
750.0,15,47.1389,0.385284,3.16667,2.39856e-06,0.883379,0.930229
750.0,15,47.2189,0.384669,2.83333,2.14608e-06,0.835074,0.865676
750.0,15,47.2989,0.384056,3.16667,2.39856e-06,0.883379,0.805628
750.0,15,47.3789,0.383444,2.0,1.51488e-06,0.683807,0.749496
750.0,15,47.4589,0.382835,1.66667,1.2624e-06,0.604625,0.696798
750.0,15,47.5389,0.382228,1.0,7.57441e-07,0.382777,0.647136
25.0,16,43.9794,0.411441,0.666667,2.2858e-07,-0.137535,0.176287
25.0,16,44.0594,0.410731,1.33333,4.57159e-07,0.163495,0.20525
25.0,16,44.1394,0.410024,0.833333,2.85724e-07,-0.040625,0.235225
25.0,16,44.2194,0.409319,1.66667,5.71449e-07,0.260405,0.266286
25.0,16,44.2994,0.408617,1.5,5.14304e-07,0.214648,0.298518
25.0,16,44.3794,0.407918,1.5,5.14304e-07,0.214648,0.332015
25.0,16,44.4594,0.407221,2.0,6.85739e-07,0.339586,0.366881
25.0,16,44.5394,0.406526,2.66667,9.14318e-07,0.464525,0.403237
25.0,16,44.6194,0.405835,3.0,1.02861e-06,0.515678,0.44122
25.0,16,44.6994,0.405145,2.16667,7.42884e-07,0.374348,0.480989
25.0,16,44.7794,0.404459,3.16667,1.08575e-06,0.539159,0.522726
25.0,16,44.8594,0.403775,2.66667,9.14318e-07,0.464525,0.566647
25.0,16,44.9394,0.403093,1.66667,5.71449e-07,0.260405,0.613005
25.0,16,45.0194,0.402414,3.0,1.02861e-06,0.515678,0.662105
25.0,16,45.0994,0.401737,4.33333,1.48577e-06,0.675378,0.714317
25.0,16,45.1794,0.401063,7.66667,2.62867e-06,0.923163,0.770101
25.0,16,45.2594,0.400391,5.83333,2.00007e-06,0.804473,0.830048
25.0,16,45.3394,0.399722,8.0,2.74296e-06,0.941646,0.895011
25.0,16,45.4194,0.399055,8.16667,2.8001e-06,0.950601,0.966518
25.0,16,45.4994,0.39839,11.3333,3.88585e-06,1.09291,1.04782
25.0,16,45.5794,0.397728,10.3333,3.54298e-06,1.0528,1.14517
25.0,16,45.6594,0.397069,15.3333,5.25733e-06,1.22419,1.26612
25.0,16,45.7394,0.396411,23.3333,8.00029e-06,1.40653,1.41195
25.0,16,45.8194,0.395756,33.6667,1.15433e-05,1.56576,1.57188
25.0,16,45.8994,0.395104,48.8333,1.67435e-05,1.72727,1.72589
25.0,16,45.9794,0.394454,58.5,2.00579e-05,1.80571,1.83972
25.0,16,46.0594,0.393806,77.5,2.65724e-05,1.92786,1.90045
25.0,16,46.1394,0.39316,100.0,3.42869e-05,2.03856,1.98752
25.0,16,46.2194,0.392517,150.5,5.16018e-05,2.21609,2.16869
25.0,16,46.2994,0.391876,293.5,0.000100632,2.50616,2.47967
25.0,16,46.3794,0.391237,1181.0,0.000404929,3.11081,3.02649
25.0,16,46.4594,0.390601,278922,0.0956337,5.48404,5.64612
25.0,16,46.5394,0.389966,1535.83,0.00052659,3.2249,3.229
25.0,16,46.6194,0.389334,286.0,9.80606e-05,2.49492,2.57393
25.0,16,46.6994,0.388705,129.333,4.43444e-05,2.15027,2.20546
25.0,16,46.7794,0.388077,70.8333,2.42866e-05,1.88879,1.94819
25.0,16,46.8594,0.387452,48.3333,1.6572e-05,1.7228,1.75044
25.0,16,46.9394,0.386829,30.8333,1.05718e-05,1.52758,1.5898
25.0,16,47.0194,0.386208,21.6667,7.42884e-06,1.37435,1.45453
25.0,16,47.0994,0.385589,15.5,5.31448e-06,1.22889,1.3377
25.0,16,47.1794,0.384973,10.8333,3.71442e-06,1.07332,1.23487
25.0,16,47.2594,0.384358,7.33333,2.51438e-06,0.903858,1.14305
25.0,16,47.3394,0.383746,8.33333,2.85724e-06,0.959375,1.06009
25.0,16,47.4194,0.383136,5.83333,2.00007e-06,0.804473,0.984434
25.0,16,47.4994,0.382528,4.83333,1.6572e-06,0.722803,0.914893
25.0,16,47.5794,0.381922,2.5,8.57173e-07,0.436496,0.850552
25.0,16,47.6594,0.381318,2.66667,9.14318e-07,0.464525,0.790683
25.0,16,47.7394,0.380717,3.5,1.20004e-06,0.582624,0.734703
25.0,16,47.8194,0.380117,2.5,8.57173e-07,0.436496,0.682138
25.0,16,47.8994,0.379519,1.83333,6.28594e-07,0.301798,0.632591
300.0,6,43.85,0.412595,2.0,1.42061e-06,0.655904,0.295421
300.0,6,43.93,0.411881,0.666667,4.73538e-07,0.178783,0.326984
300.0,6,44.01,0.411169,1.0,7.10307e-07,0.354874,0.359844
300.0,6,44.09,0.41046,1.16667,8.28692e-07,0.421821,0.394121
300.0,6,44.17,0.409754,0.833333,5.91923e-07,0.275693,0.429957
300.0,6,44.25,0.40905,1.83333,1.30223e-06,0.618115,0.467519
300.0,6,44.33,0.408349,2.83333,2.01254e-06,0.807171,0.507004
300.0,6,44.41,0.407651,1.83333,1.30223e-06,0.618115,0.548645
300.0,6,44.49,0.406955,1.83333,1.30223e-06,0.618115,0.592729
300.0,6,44.57,0.406261,2.16667,1.539e-06,0.690666,0.639606
300.0,6,44.65,0.405571,3.16667,2.24931e-06,0.855476,0.689715
300.0,6,44.73,0.404882,3.0,2.13092e-06,0.831995,0.743619
300.0,6,44.81,0.404197,4.33333,3.078e-06,0.991696,0.802073
300.0,6,44.89,0.403514,3.33333,2.36769e-06,0.877753,0.866265
300.0,6,44.97,0.402833,2.83333,2.01254e-06,0.807171,0.938624
300.0,6,45.05,0.402155,4.83333,3.43315e-06,1.03912,1.02501
300.0,6,45.13,0.401479,6.0,4.26184e-06,1.13303,1.13744
300.0,6,45.21,0.400806,7.83333,5.56407e-06,1.24882,1.29002
300.0,6,45.29,0.400135,10.0,7.10307e-06,1.35487,1.48206
300.0,6,45.37,0.399466,24.1667,1.71658e-05,1.73809,1.68942
300.0,6,45.45,0.3988,42.5,3.01881e-05,1.98326,1.88074
300.0,6,45.53,0.398137,54.3333,3.85934e-05,2.08994,2.02269
300.0,6,45.61,0.397476,55.8333,3.96588e-05,2.10177,2.06114
300.0,6,45.69,0.396817,37.8333,2.68733e-05,1.93275,1.9888
300.0,6,45.77,0.396161,33.6667,2.39137e-05,1.88207,1.88483
300.0,6,45.85,0.395506,34.1667,2.42688e-05,1.88848,1.82272
300.0,6,45.93,0.394855,43.8333,3.11351e-05,1.99668,1.85125
300.0,6,46.01,0.394205,56.5,4.01324e-05,2.10692,1.97961
300.0,6,46.09,0.393558,65.6667,4.66435e-05,2.17222,2.19929
300.0,6,46.17,0.392914,145.5,0.00010335,2.51774,2.53314
300.0,6,46.25,0.392271,608.333,0.000432104,3.13902,3.10832
300.0,6,46.33,0.391631,755916,0.536933,6.23335,6.20399
300.0,6,46.41,0.390993,857.667,0.000609207,3.28819,3.19531
300.0,6,46.49,0.390358,171.167,0.000121581,2.58829,2.57371
300.0,6,46.57,0.389724,57.8333,4.10794e-05,2.11705,2.21633
300.0,6,46.65,0.389093,33.1667,2.35585e-05,1.87558,1.96502
300.0,6,46.73,0.388464,20.6667,1.46797e-05,1.67014,1.77127
300.0,6,46.81,0.387838,13.0,9.23399e-06,1.46882,1.61368
300.0,6,46.89,0.387213,10.8333,7.695e-06,1.38964,1.48091
300.0,6,46.97,0.386591,6.5,4.617e-06,1.16779,1.36622
300.0,6,47.05,0.385971,5.5,3.90669e-06,1.09524,1.26527
300.0,6,47.13,0.385353,2.5,1.77577e-06,0.752814,1.17514
300.0,6,47.21,0.384737,3.66667,2.60446e-06,0.919145,1.09371
300.0,6,47.29,0.384124,3.16667,2.24931e-06,0.855476,1.01946
300.0,6,47.37,0.383512,2.0,1.42061e-06,0.655904,0.95122
300.0,6,47.45,0.382903,2.66667,1.89415e-06,0.780843,0.888081
300.0,6,47.53,0.382296,1.0,7.10307e-07,0.354874,0.829331
300.0,6,47.61,0.381691,0.5,3.55154e-07,0.0538438,0.774397
300.0,6,47.69,0.381088,0.666667,4.73538e-07,0.178783,0.722809
300.0,6,47.77,0.380487,0.5,3.55154e-07,0.0538438,0.674181
100.0,2,43.9427,0.411768,1.33333,5.45916e-07,0.240553,0.289135
100.0,2,44.0227,0.411057,1.0,4.09437e-07,0.115614,0.31978
100.0,2,44.1027,0.410348,2.83333,1.16007e-06,0.567912,0.351629
100.0,2,44.1827,0.409642,2.33333,9.55352e-07,0.483591,0.38479
100.0,2,44.2627,0.408939,2.5,1.02359e-06,0.513554,0.419388
100.0,2,44.3427,0.408238,1.5,6.14155e-07,0.291706,0.455567
100.0,2,44.4227,0.40754,2.16667,8.87113e-07,0.451406,0.4935
100.0,2,44.5027,0.406845,2.0,8.18873e-07,0.416644,0.533388
100.0,2,44.5827,0.406152,4.83333,1.97894e-06,0.799861,0.575477
100.0,2,44.6627,0.405461,4.0,1.63775e-06,0.717674,0.620067
100.0,2,44.7427,0.404773,3.0,1.22831e-06,0.592736,0.667532
100.0,2,44.8227,0.404088,3.33333,1.36479e-06,0.638493,0.718346
100.0,2,44.9027,0.403405,4.83333,1.97894e-06,0.799861,0.773131
100.0,2,44.9827,0.402725,5.0,2.04718e-06,0.814584,0.832764
100.0,2,45.0627,0.402047,5.83333,2.38838e-06,0.881531,0.89872
100.0,2,45.1427,0.401372,7.83333,3.20725e-06,1.00956,0.974072
100.0,2,45.2227,0.400699,8.83333,3.61669e-06,1.06174,1.06537
100.0,2,45.3027,0.400028,12.6667,5.1862e-06,1.21828,1.18293
100.0,2,45.3827,0.39936,13.3333,5.45916e-06,1.24055,1.3338
100.0,2,45.4627,0.398695,23.0,9.41704e-06,1.47734,1.51034
100.0,2,45.5427,0.398032,40.5,1.65822e-05,1.72307,1.69115
100.0,2,45.6227,0.397371,57.3333,2.34744e-05,1.87402,1.84354
100.0,2,45.7027,0.396713,56.8333,2.32697e-05,1.87022,1.90519
100.0,2,45.7827,0.396057,52.8333,2.16319e-05,1.83852,1.85552
100.0,2,45.8627,0.395403,44.8333,1.83564e-05,1.76722,1.78517
100.0,2,45.9427,0.394752,55.8333,2.28602e-05,1.86251,1.77006
100.0,2,46.0227,0.394103,62.5,2.55898e-05,1.91149,1.83755
100.0,2,46.1027,0.393456,85.5,3.50068e-05,2.04758,1.98442
100.0,2,46.1827,0.392812,125.0,5.11796e-05,2.21252,2.20758
100.0,2,46.2627,0.392169,242.5,9.92884e-05,2.50033,2.53485
100.0,2,46.3427,0.39153,1031.83,0.00042247,3.12922,3.08385
100.0,2,46.4227,0.390892,225997.5,0.0925317,5.46972,5.59901
100.0,2,46.5027,0.390257,1596.33,0.000653598,3.31874,3.2975
100.0,2,46.5827,0.389624,298.333,0.000122149,2.59032,2.63914
100.0,2,46.6627,0.388993,103.167,4.22402e-05,2.12915,2.26977
100.0,2,46.7427,0.388365,61.6667,2.52486e-05,1.90566,2.01222
100.0,2,46.8227,0.387738,45.1667,1.84929e-05,1.77043,1.81448
100.0,2,46.9027,0.387114,36.1667,1.4808e-05,1.67392,1.65403
100.0,2,46.9827,0.386492,21.0,8.59817e-06,1.43783,1.51905
100.0,2,47.0627,0.385873,10.1667,4.16261e-06,1.12279,1.40256
100.0,2,47.1427,0.385255,9.16667,3.75317e-06,1.07783,1.30012
100.0,2,47.2227,0.38464,5.83333,2.38838e-06,0.881531,1.2087
100.0,2,47.3027,0.384027,7.0,2.86606e-06,0.960712,1.12615
100.0,2,47.3827,0.383415,4.0,1.63775e-06,0.717674,1.05091
100.0,2,47.4627,0.382807,3.5,1.43303e-06,0.659682,0.981783
100.0,2,47.5427,0.3822,2.33333,9.55352e-07,0.483591,0.917845
100.0,2,47.6227,0.381595,2.33333,9.55352e-07,0.483591,0.858371
100.0,2,47.7027,0.380992,1.33333,5.45916e-07,0.240553,0.802775
100.0,2,47.7827,0.380392,2.33333,9.55352e-07,0.483591,0.750581
100.0,2,47.8627,0.379793,2.66667,1.09183e-06,0.541583,0.701393
400.0,8,43.8064,0.412986,1.16667,5.28184e-07,0.226213,0.235419
400.0,8,43.8864,0.41227,0.833333,3.77274e-07,0.0800849,0.265256
400.0,8,43.9664,0.411557,0.333333,1.5091e-07,-0.317855,0.296211
400.0,8,44.0464,0.410846,1.5,6.79094e-07,0.335357,0.328379
400.0,8,44.1264,0.410139,1.83333,8.30004e-07,0.422508,0.361867
400.0,8,44.2064,0.409433,1.66667,7.54549e-07,0.381115,0.396802
400.0,8,44.2864,0.408731,1.5,6.79094e-07,0.335357,0.43333
400.0,8,44.3664,0.408031,2.0,9.05459e-07,0.460296,0.471625
400.0,8,44.4464,0.407334,1.83333,8.30004e-07,0.422508,0.511895
400.0,8,44.5264,0.406639,1.83333,8.30004e-07,0.422508,0.554397
400.0,8,44.6064,0.405947,3.66667,1.66001e-06,0.723538,0.599446
400.0,8,44.6864,0.405257,3.16667,1.43364e-06,0.659869,0.647448
400.0,8,44.7664,0.40457,3.33333,1.5091e-06,0.682145,0.698933
400.0,8,44.8464,0.403886,4.16667,1.88637e-06,0.779055,0.754637
400.0,8,44.9264,0.403203,5.33333,2.41456e-06,0.886265,0.815769
400.0,8,45.0064,0.402524,5.66667,2.56547e-06,0.912594,0.885353
400.0,8,45.0864,0.401847,7.0,3.16911e-06,1.00436,0.973198
400.0,8,45.1664,0.401172,8.66667,3.92365e-06,1.09712,1.10318
400.0,8,45.2464,0.4005,12.0,5.43275e-06,1.23845,1.29759
400.0,8,45.3264,0.39983,20.8333,9.43186e-06,1.47802,1.53213
400.0,8,45.4064,0.399163,44.0,1.99201e-05,1.80272,1.74738
400.0,8,45.4864,0.398498,57.5,2.60319e-05,1.91893,1.88714
400.0,8,45.5664,0.397836,50.5,2.28628e-05,1.86256,1.88955
400.0,8,45.6464,0.397176,36.3333,1.64492e-05,1.71957,1.79289
400.0,8,45.7264,0.396518,33.5,1.51664e-05,1.68431,1.70653
400.0,8,45.8064,0.395863,39.8333,1.80337e-05,1.75951,1.70988
400.0,8,45.8864,0.39521,47.1667,2.13537e-05,1.8329,1.81485
400.0,8,45.9664,0.394559,75.0,3.39547e-05,2.03433,1.99327
400.0,8,46.0464,0.393911,128.167,5.80248e-05,2.26704,2.24165
400.0,8,46.1264,0.393265,293.833,0.000133027,2.62737,2.60152
400.0,8,46.2064,0.392621,1302.33,0.000589604,3.27399,3.23421
400.0,8,46.2864,0.39198,1.04433e+06,0.472801,6.17811,6.10358
400.0,8,46.3664,0.391341,820.0,0.000371238,3.07308,3.10847
400.0,8,46.4464,0.390704,215.333,9.74877e-05,2.49238,2.53787
400.0,8,46.5264,0.390069,102.833,4.65557e-05,2.1714,2.19672
400.0,8,46.6064,0.389437,54.0,2.44474e-05,1.89166,1.95275
400.0,8,46.6864,0.388807,38.1667,1.72792e-05,1.74095,1.76278
400.0,8,46.7664,0.388179,22.5,1.01864e-05,1.51145,1.60721
400.0,8,46.8464,0.387553,18.1667,8.22458e-06,1.41854,1.4755
400.0,8,46.9264,0.38693,17.0,7.6964e-06,1.38972,1.36129
400.0,8,47.0064,0.386309,10.8333,4.90457e-06,1.19403,1.26049
400.0,8,47.0864,0.38569,8.5,3.8482e-06,1.08869,1.17027
400.0,8,47.1664,0.385073,6.5,2.94274e-06,0.97218,1.08862
400.0,8,47.2464,0.384458,4.33333,1.96183e-06,0.796088,1.01405
400.0,8,47.3264,0.383845,4.16667,1.88637e-06,0.779055,0.945437
400.0,8,47.4064,0.383235,3.66667,1.66001e-06,0.723538,0.881891
400.0,8,47.4864,0.382627,4.66667,2.11274e-06,0.828273,0.822715
400.0,8,47.5664,0.38202,1.83333,8.30004e-07,0.422508,0.767346
400.0,8,47.6464,0.381416,3.66667,1.66001e-06,0.723538,0.715322
400.0,8,47.7264,0.380814,1.83333,8.30004e-07,0.422508,0.666263
700.0,14,43.6669,0.41424,1.0,4.07773e-07,0.113846,0.0354718
700.0,14,43.7469,0.41352,0.5,2.03886e-07,-0.187184,0.0642391
700.0,14,43.8269,0.412802,0.833333,3.39811e-07,0.0346645,0.093996
700.0,14,43.9069,0.412087,1.16667,4.75735e-07,0.180793,0.124814
700.0,14,43.9869,0.411375,0.666667,2.71849e-07,-0.0622455,0.156771
700.0,14,44.0669,0.410665,1.16667,4.75735e-07,0.180793,0.189956
700.0,14,44.1469,0.409958,1.5,6.11659e-07,0.289937,0.224468
700.0,14,44.2269,0.409253,1.0,4.07773e-07,0.113846,0.260419
700.0,14,44.3069,0.408551,0.666667,2.71849e-07,-0.0622455,0.297935
700.0,14,44.3869,0.407852,0.5,2.03886e-07,-0.187184,0.337162
700.0,14,44.4669,0.407155,1.83333,7.47583e-07,0.377087,0.378264
700.0,14,44.5469,0.406461,0.833333,3.39811e-07,0.0346645,0.421436
700.0,14,44.6269,0.40577,2.16667,8.83508e-07,0.449638,0.466901
700.0,14,44.7069,0.405081,3.0,1.22332e-06,0.590967,0.514932
700.0,14,44.7869,0.404394,4.0,1.63109e-06,0.715906,0.565899
700.0,14,44.8669,0.403711,3.83333,1.56313e-06,0.697422,0.620513
700.0,14,44.9469,0.403029,3.66667,1.49517e-06,0.678117,0.680811
700.0,14,45.0269,0.40235,4.83333,1.9709e-06,0.798093,0.752943
700.0,14,45.1069,0.401674,8.5,3.46607e-06,1.04326,0.85126
700.0,14,45.1869,0.401,6.5,2.65052e-06,0.926759,0.994854
700.0,14,45.2669,0.400328,12.0,4.89327e-06,1.19303,1.18598
700.0,14,45.3469,0.399659,18.5,7.5438e-06,1.38102,1.3958
700.0,14,45.4269,0.398992,30.0,1.22332e-05,1.59097,1.58536
700.0,14,45.5069,0.398328,50.0,2.03886e-05,1.81282,1.72853
700.0,14,45.5869,0.397666,48.1667,1.96411e-05,1.79659,1.81507
700.0,14,45.6669,0.397007,47.1667,1.92333e-05,1.78748,1.85136
700.0,14,45.7469,0.39635,57.8333,2.35829e-05,1.87602,1.87321
700.0,14,45.8269,0.395695,62.0,2.52819e-05,1.90624,1.944
700.0,14,45.9069,0.395043,97.1667,3.96219e-05,2.10136,2.12768
700.0,14,45.9869,0.394393,280.5,0.00011438,2.56178,2.47353
700.0,14,46.0669,0.393745,1569.5,0.000639999,3.30961,3.13707
700.0,14,46.1469,0.3931,178816,0.0729164,5.36625,5.46748
700.0,14,46.2269,0.392457,675.167,0.000275315,2.94326,2.88871
700.0,14,46.3069,0.391816,153.167,6.24572e-05,2.29901,2.34367
700.0,14,46.3869,0.391177,59.8333,2.43984e-05,1.89079,2.01136
700.0,14,46.4669,0.390541,35.8333,1.46119e-05,1.66813,1.77168
700.0,14,46.5469,0.389907,27.0,1.10099e-05,1.54521,1.58412
700.0,14,46.6269,0.389275,19.8333,8.08749e-06,1.41124,1.43002
700.0,14,46.7069,0.388646,16.3333,6.66029e-06,1.32692,1.29922
700.0,14,46.7869,0.388018,12.0,4.89327e-06,1.19303,1.1856
700.0,14,46.8669,0.387393,7.66667,3.12626e-06,0.998452,1.08517
700.0,14,46.9469,0.38677,8.5,3.46607e-06,1.04326,0.995174
700.0,14,47.0269,0.38615,7.33333,2.99033e-06,0.979147,0.913652
700.0,14,47.1069,0.385531,5.5,2.24275e-06,0.854208,0.839141
700.0,14,47.1869,0.384915,5.83333,2.37867e-06,0.879763,0.770532
700.0,14,47.2669,0.384301,5.33333,2.17479e-06,0.840844,0.706956
700.0,14,47.3469,0.383689,2.33333,9.5147e-07,0.481823,0.647725
700.0,14,47.4269,0.383079,2.33333,9.5147e-07,0.481823,0.592282
700.0,14,47.5069,0.382471,2.66667,1.08739e-06,0.539814,0.540172
700.0,14,47.5869,0.381865,1.66667,6.79621e-07,0.335695,0.491017
500.0,10,43.7653,0.413354,2.33333,8.9118e-07,0.453393,0.179328
500.0,10,43.8453,0.412637,1.5,5.72902e-07,0.261508,0.208901
500.0,10,43.9253,0.411923,0.5,1.90967e-07,-0.215614,0.239553
500.0,10,44.0053,0.411211,1.33333,5.09246e-07,0.210355,0.271369
500.0,10,44.0853,0.410502,2.0,7.63869e-07,0.386446,0.304447
500.0,10,44.1653,0.409795,1.66667,6.36557e-07,0.307265,0.338899
500.0,10,44.2453,0.409092,2.5,9.54836e-07,0.483356,0.374853
500.0,10,44.3253,0.40839,1.0,3.81934e-07,0.0854163,0.412461
500.0,10,44.4053,0.407692,2.33333,8.9118e-07,0.453393,0.451897
500.0,10,44.4853,0.406996,2.66667,1.01849e-06,0.511385,0.493373
500.0,10,44.5653,0.406302,2.0,7.63869e-07,0.386446,0.537145
500.0,10,44.6453,0.405611,2.83333,1.08215e-06,0.537714,0.583528
500.0,10,44.7253,0.404923,2.83333,1.08215e-06,0.537714,0.632921
500.0,10,44.8053,0.404237,4.5,1.7187e-06,0.738629,0.685844
500.0,10,44.8853,0.403554,3.0,1.1458e-06,0.562538,0.743016
500.0,10,44.9653,0.402873,4.0,1.52774e-06,0.687476,0.805687
500.0,10,45.0453,0.402194,6.83333,2.60989e-06,0.920049,0.8774
500.0,10,45.1253,0.401518,7.0,2.67354e-06,0.930514,0.970511
500.0,10,45.2053,0.400845,9.0,3.43741e-06,1.03966,1.11391
500.0,10,45.2853,0.400174,20.3333,7.766e-06,1.39362,1.32716
500.0,10,45.3653,0.399506,33.0,1.26038e-05,1.60393,1.57091
500.0,10,45.4453,0.398839,44.5,1.69961e-05,1.73378,1.7779
500.0,10,45.5253,0.398176,50.3333,1.9224e-05,1.78727,1.89102
500.0,10,45.6053,0.397514,50.0,1.90967e-05,1.78439,1.86743
500.0,10,45.6853,0.396856,49.0,1.87148e-05,1.77561,1.77819
500.0,10,45.7653,0.396199,53.3333,2.03698e-05,1.81242,1.73437
500.0,10,45.8453,0.395545,58.6667,2.24068e-05,1.85381,1.80292
500.0,10,45.9253,0.394893,90.1667,3.44378e-05,2.04046,1.97352
500.0,10,46.0053,0.394244,145.0,5.53805e-05,2.24678,2.22917
500.0,10,46.0853,0.393596,374.167,0.000142907,2.65848,2.60896
500.0,10,46.1653,0.392951,2078.5,0.000793851,3.40317,3.30814
500.0,10,46.2453,0.392309,50741.3,0.0193799,4.79078,4.70573
500.0,10,46.3253,0.391669,727.167,0.00027773,2.94705,2.96352
500.0,10,46.4053,0.391031,192.833,7.36497e-05,2.3706,2.43726
500.0,10,46.4853,0.390395,95.8333,3.6602e-05,2.06693,2.11219
500.0,10,46.5653,0.389761,52.3333,1.99879e-05,1.80419,1.8765
500.0,10,46.6453,0.38913,37.8333,1.44499e-05,1.66329,1.69155
500.0,10,46.7253,0.388501,27.0,1.03122e-05,1.51678,1.53935
500.0,10,46.8053,0.387874,17.5,6.68385e-06,1.32845,1.41003
500.0,10,46.8853,0.38725,15.1667,5.79267e-06,1.26631,1.29762
500.0,10,46.9653,0.386628,10.5,4.01031e-06,1.10661,1.1982
500.0,10,47.0453,0.386007,9.16667,3.50107e-06,1.04763,1.10907
500.0,10,47.1253,0.385389,6.16667,2.35526e-06,0.875467,1.02831
500.0,10,47.2053,0.384773,5.66667,2.1643e-06,0.838744,0.95447
500.0,10,47.2853,0.38416,5.66667,2.1643e-06,0.838744,0.886463
500.0,10,47.3653,0.383548,4.66667,1.78236e-06,0.754423,0.823431
500.0,10,47.4453,0.382939,4.16667,1.59139e-06,0.705205,0.764694
500.0,10,47.5253,0.382331,5.0,1.90967e-06,0.784386,0.709704
500.0,10,47.6053,0.381726,4.0,1.52774e-06,0.687476,0.658011
500.0,10,47.6853,0.381123,2.33333,8.9118e-07,0.453393,0.609239
650.0,13,43.6998,0.413944,0.166667,7.04531e-08,-0.648672,0.0617192
650.0,13,43.7798,0.413224,0.5,2.11359e-07,-0.171551,0.0909144
650.0,13,43.8598,0.412508,0.5,2.11359e-07,-0.171551,0.12114
650.0,13,43.9398,0.411794,0.666667,2.81813e-07,-0.0466121,0.152472
650.0,13,44.0198,0.411082,0.833333,3.52266e-07,0.0502979,0.184998
650.0,13,44.0998,0.410374,1.16667,4.93172e-07,0.196426,0.218815
650.0,13,44.1798,0.409668,1.33333,5.63625e-07,0.254418,0.254033
650.0,13,44.2598,0.408964,1.33333,5.63625e-07,0.254418,0.290778
650.0,13,44.3398,0.408263,1.0,4.22719e-07,0.129479,0.329194
650.0,13,44.4198,0.407565,1.33333,5.63625e-07,0.254418,0.369449
650.0,13,44.4998,0.40687,1.83333,7.74985e-07,0.392721,0.411739
650.0,13,44.5798,0.406177,2.5,1.0568e-06,0.527419,0.456296
650.0,13,44.6598,0.405486,4.16667,1.76133e-06,0.749268,0.503398
650.0,13,44.7398,0.404798,3.16667,1.33861e-06,0.630082,0.553387
650.0,13,44.8198,0.404113,2.5,1.0568e-06,0.527419,0.606706
650.0,13,44.8998,0.40343,4.0,1.69088e-06,0.731539,0.664086
650.0,13,44.9798,0.40275,2.5,1.0568e-06,0.527419,0.72753
650.0,13,45.0598,0.402072,6.66667,2.81813e-06,0.953388,0.804134
650.0,13,45.1398,0.401396,7.16667,3.02949e-06,0.984796,0.913785
650.0,13,45.2198,0.400723,9.16667,3.87492e-06,1.09169,1.08507
650.0,13,45.2998,0.400053,13.8333,5.84761e-06,1.27041,1.31547
650.0,13,45.3798,0.399385,28.0,1.18361e-05,1.57664,1.55403
650.0,13,45.4598,0.398719,43.8333,1.85292e-05,1.77128,1.74752
650.0,13,45.5398,0.398056,48.3333,2.04314e-05,1.81373,1.8653
650.0,13,45.6198,0.397395,47.6667,2.01496e-05,1.80769,1.89179
650.0,13,45.6998,0.396736,54.0,2.28268e-05,1.86187,1.85703
650.0,13,45.7798,0.39608,55.1667,2.332e-05,1.87116,1.84072
650.0,13,45.8598,0.395427,62.1667,2.6279e-05,1.92304,1.92762
650.0,13,45.9398,0.394775,110.167,4.65695e-05,2.17153,2.15232
650.0,13,46.0198,0.394126,327.167,0.0001383,2.64425,2.53602
650.0,13,46.0998,0.393479,2229.83,0.000942593,3.47775,3.2764
650.0,13,46.1798,0.392835,21237.3,0.00897742,4.45658,4.16537
650.0,13,46.2598,0.392193,492.667,0.000208259,2.82203,2.80976
650.0,13,46.3398,0.391553,116.167,4.91058e-05,2.19456,2.30462
650.0,13,46.4198,0.390915,45.5,1.92337e-05,1.78749,1.98754
650.0,13,46.4998,0.39028,30.5,1.28929e-05,1.61378,1.75601
650.0,13,46.5798,0.389647,28.1667,1.19066e-05,1.57921,1.57357
650.0,13,46.6598,0.389016,23.3333,9.86344e-06,1.49746,1.42303
650.0,13,46.7398,0.388388,16.3333,6.90441e-06,1.34255,1.29488
650.0,13,46.8198,0.387761,11.8333,5.00217e-06,1.20259,1.18331
650.0,13,46.8998,0.387137,9.0,3.80447e-06,1.08372,1.08453
650.0,13,46.9798,0.386515,6.16667,2.60677e-06,0.91953,0.995889
650.0,13,47.0598,0.385895,6.5,2.74767e-06,0.942393,0.915507
650.0,13,47.1398,0.385278,7.33333,3.09994e-06,0.994781,0.841972
650.0,13,47.2198,0.384662,4.66667,1.97269e-06,0.798486,0.774207
650.0,13,47.2998,0.384049,3.66667,1.54997e-06,0.693751,0.711372
650.0,13,47.3798,0.383438,2.83333,1.1977e-06,0.581777,0.652796
650.0,13,47.4598,0.382829,2.0,8.45438e-07,0.430509,0.597938
650.0,13,47.5398,0.382222,4.16667,1.76133e-06,0.749268,0.546353
650.0,13,47.6198,0.381617,2.16667,9.15891e-07,0.465271,0.497671
150.0,3,43.9547,0.411661,1.16667,4.61792e-07,0.167874,0.287403
150.0,3,44.0347,0.41095,1.0,3.95822e-07,0.100927,0.318169
150.0,3,44.1147,0.410242,1.0,3.95822e-07,0.100927,0.350147
150.0,3,44.1947,0.409536,2.5,9.89555e-07,0.498867,0.383444
150.0,3,44.2747,0.408834,2.66667,1.05552e-06,0.526896,0.418189
150.0,3,44.3547,0.408133,1.5,5.93733e-07,0.277019,0.454527
150.0,3,44.4347,0.407436,2.33333,9.23584e-07,0.468904,0.492635
150.0,3,44.5147,0.40674,3.5,1.38538e-06,0.644995,0.53272
150.0,3,44.5947,0.406048,2.83333,1.1215e-06,0.553225,0.575037
150.0,3,44.6747,0.405358,3.0,1.18747e-06,0.578049,0.619899
150.0,3,44.7547,0.40467,2.83333,1.1215e-06,0.553225,0.6677
150.0,3,44.8347,0.403985,3.83333,1.51732e-06,0.684504,0.718948
150.0,3,44.9147,0.403303,3.33333,1.31941e-06,0.623806,0.774319
150.0,3,44.9947,0.402623,3.66667,1.45135e-06,0.665199,0.834778
150.0,3,45.0747,0.401946,6.16667,2.4409e-06,0.890978,0.901989
150.0,3,45.1547,0.401271,7.33333,2.90269e-06,0.966229,0.979708
150.0,3,45.2347,0.400598,11.3333,4.48598e-06,1.15528,1.07671
150.0,3,45.3147,0.399928,13.5,5.34359e-06,1.23126,1.20713
150.0,3,45.3947,0.39926,20.5,8.11435e-06,1.41268,1.37785
150.0,3,45.4747,0.398595,30.8333,1.22045e-05,1.58995,1.57251
150.0,3,45.5547,0.397932,50.0,1.97911e-05,1.7999,1.75791
150.0,3,45.6347,0.397272,60.5,2.39472e-05,1.88268,1.87803
150.0,3,45.7147,0.396614,54.0,2.13744e-05,1.83332,1.86376
150.0,3,45.7947,0.395958,43.1667,1.70863e-05,1.73608,1.77883
150.0,3,45.8747,0.395305,44.3333,1.75481e-05,1.74766,1.73054
150.0,3,45.9547,0.394654,54.8333,2.17042e-05,1.83997,1.7659
150.0,3,46.0347,0.394005,76.0,3.00825e-05,1.98174,1.88444
150.0,3,46.1147,0.393359,101.5,4.01759e-05,2.10739,2.07278
150.0,3,46.1947,0.392715,161.833,6.40572e-05,2.31,2.33978
150.0,3,46.2747,0.392073,417.0,0.000165058,2.72106,2.74235
150.0,3,46.3547,0.391434,3053.67,0.00120871,3.58575,3.52794
150.0,3,46.4347,0.390797,14761.5,0.00584292,4.27006,4.14712
150.0,3,46.5147,0.390162,694.333,0.000274832,2.9425,2.94338
150.0,3,46.5947,0.389529,200.833,7.94942e-05,2.40376,2.45677
150.0,3,46.6747,0.388899,100.667,3.98461e-05,2.10381,2.14736
150.0,3,46.7547,0.388271,62.8333,2.48708e-05,1.89912,1.92024
150.0,3,46.8347,0.387645,41.3333,1.63606e-05,1.71723,1.74081
150.0,3,46.9147,0.387021,26.8333,1.06212e-05,1.5296,1.59252
150.0,3,46.9947,0.386399,24.1667,9.56569e-06,1.48414,1.46616
150.0,3,47.0747,0.38578,11.8333,4.68389e-06,1.17403,1.3561
150.0,3,47.1547,0.385163,7.83333,3.1006e-06,0.994874,1.2586
150.0,3,47.2347,0.384548,6.5,2.57284e-06,0.913841,1.17109
150.0,3,47.3147,0.383935,5.33333,2.11105e-06,0.827926,1.09171
150.0,3,47.3947,0.383324,5.33333,2.11105e-06,0.827926,1.01908
150.0,3,47.4747,0.382715,5.0,1.97911e-06,0.799897,0.95214
150.0,3,47.5547,0.382109,3.16667,1.25344e-06,0.60153,0.890055
150.0,3,47.6347,0.381504,3.5,1.38538e-06,0.644995,0.83217
150.0,3,47.7147,0.380902,2.33333,9.23584e-07,0.468904,0.77795
150.0,3,47.7947,0.380302,2.0,7.91644e-07,0.401957,0.726958
150.0,3,47.8747,0.379704,2.33333,9.23584e-07,0.468904,0.678829
600.0,12,43.733,0.413645,1.0,3.86187e-07,0.0902249,0.118041
600.0,12,43.813,0.412926,1.0,3.86187e-07,0.0902249,0.147556
600.0,12,43.893,0.412211,1.33333,5.14916e-07,0.215164,0.178131
600.0,12,43.973,0.411498,1.0,3.86187e-07,0.0902249,0.209848
600.0,12,44.053,0.410788,0.833333,3.21822e-07,0.0110436,0.2428
600.0,12,44.133,0.41008,1.16667,4.50551e-07,0.157172,0.277091
600.0,12,44.213,0.409375,1.33333,5.14916e-07,0.215164,0.31284
600.0,12,44.293,0.408673,2.0,7.72373e-07,0.391255,0.350183
600.0,12,44.373,0.407973,0.833333,3.21822e-07,0.0110436,0.38928
600.0,12,44.453,0.407276,2.33333,9.01102e-07,0.458202,0.430315
600.0,12,44.533,0.406582,2.0,7.72373e-07,0.391255,0.47351
600.0,12,44.613,0.40589,2.0,7.72373e-07,0.391255,0.519128
600.0,12,44.693,0.4052,2.66667,1.02983e-06,0.516194,0.567494
600.0,12,44.773,0.404514,3.83333,1.48038e-06,0.673801,0.619018
600.0,12,44.853,0.403829,2.83333,1.0942e-06,0.542523,0.674299
600.0,12,44.933,0.403147,4.66667,1.8022e-06,0.759232,0.734576
600.0,12,45.013,0.402468,5.33333,2.05966e-06,0.817224,0.803572
600.0,12,45.093,0.401791,7.0,2.70331e-06,0.935323,0.892088
600.0,12,45.173,0.401117,10.5,4.05496e-06,1.11141,1.02069
600.0,12,45.253,0.400445,13.1667,5.08479e-06,1.2097,1.20269
600.0,12,45.333,0.399775,19.1667,7.40191e-06,1.37277,1.41588
600.0,12,45.413,0.399108,36.0,1.39027e-05,1.64653,1.61501
600.0,12,45.493,0.398443,49.1667,1.89875e-05,1.7819,1.76381
600.0,12,45.573,0.397781,49.1667,1.89875e-05,1.7819,1.83441
600.0,12,45.653,0.397121,55.0,2.12403e-05,1.83059,1.82493
600.0,12,45.733,0.396464,53.3333,2.05966e-05,1.81722,1.79826
600.0,12,45.813,0.395809,61.5,2.37505e-05,1.8791,1.83202
600.0,12,45.893,0.395156,77.6667,2.99938e-05,1.98046,1.97332
600.0,12,45.973,0.394505,150.0,5.7928e-05,2.26632,2.23039
600.0,12,46.053,0.393857,459.5,0.000177453,2.75251,2.64209
600.0,12,46.133,0.393212,3540.5,0.00136729,3.63929,3.47353
600.0,12,46.213,0.392568,9022.83,0.0034845,4.04557,3.88138
600.0,12,46.293,0.391927,436.167,0.000168442,2.72988,2.77685
600.0,12,46.373,0.391288,107.667,4.15794e-05,2.12231,2.30536
600.0,12,46.453,0.390651,56.6667,2.18839e-05,1.84355,2.00179
600.0,12,46.533,0.390017,39.1667,1.51256e-05,1.68314,1.77759
600.0,12,46.613,0.389385,31.6667,1.22292e-05,1.59083,1.59978
600.0,12,46.693,0.388755,24.1667,9.33285e-06,1.47344,1.45244
600.0,12,46.773,0.388127,16.8333,6.50081e-06,1.3164,1.32665
600.0,12,46.853,0.387502,13.8333,5.34225e-06,1.23115,1.2169
600.0,12,46.933,0.386879,12.5,4.82733e-06,1.18713,1.11955
600.0,12,47.013,0.386257,11.6667,4.50551e-06,1.15717,1.0321
600.0,12,47.093,0.385639,8.0,3.08949e-06,0.993315,0.952704
600.0,12,47.173,0.385022,5.16667,1.9953e-06,0.803435,0.880006
600.0,12,47.253,0.384407,5.0,1.93093e-06,0.789195,0.812961
600.0,12,47.333,0.383795,4.66667,1.8022e-06,0.759232,0.750753
600.0,12,47.413,0.383185,4.33333,1.67348e-06,0.727047,0.692728
600.0,12,47.493,0.382576,3.16667,1.22292e-06,0.590827,0.63836
600.0,12,47.573,0.38197,2.66667,1.02983e-06,0.516194,0.587212
600.0,12,47.653,0.381366,3.0,1.15856e-06,0.567346,0.538925
350.0,7,43.8635,0.412474,1.0,4.32178e-07,0.13909,0.2667
350.0,7,43.9435,0.411761,1.0,4.32178e-07,0.13909,0.297185
350.0,7,44.0235,0.411049,2.83333,1.2245e-06,0.591388,0.328849
350.0,7,44.1035,0.410341,1.66667,7.20297e-07,0.360939,0.361798
350.0,7,44.1835,0.409635,2.0,8.64356e-07,0.44012,0.396153
350.0,7,44.2635,0.408932,0.833333,3.60148e-07,0.0599089,0.432054
350.0,7,44.3435,0.408231,2.33333,1.00842e-06,0.507067,0.469668
350.0,7,44.4235,0.407533,2.33333,1.00842e-06,0.507067,0.509196
350.0,7,44.5035,0.406838,2.83333,1.2245e-06,0.591388,0.55088
350.0,7,44.5835,0.406145,2.16667,9.36386e-07,0.474882,0.59502
350.0,7,44.6635,0.405454,4.16667,1.80074e-06,0.758879,0.641999
350.0,7,44.7435,0.404767,3.66667,1.58465e-06,0.703362,0.692312
350.0,7,44.8235,0.404081,3.83333,1.65668e-06,0.722667,0.746621
350.0,7,44.9035,0.403398,2.66667,1.15247e-06,0.565059,0.805854
350.0,7,44.9835,0.402718,5.5,2.37698e-06,0.879453,0.871436
350.0,7,45.0635,0.40204,6.16667,2.6651e-06,0.929141,0.946303
350.0,7,45.1435,0.401365,9.0,3.8896e-06,1.09333,1.03893
350.0,7,45.2235,0.400692,10.3333,4.46584e-06,1.15333,1.17024
350.0,7,45.3035,0.400022,18.0,7.7792e-06,1.39436,1.36127
350.0,7,45.3835,0.399354,31.6667,1.36856e-05,1.63969,1.59147
350.0,7,45.4635,0.398688,46.6667,2.01683e-05,1.8081,1.80296
350.0,7,45.5435,0.398025,53.1667,2.29775e-05,1.86473,1.90568
350.0,7,45.6235,0.397364,55.1667,2.38418e-05,1.88077,1.83376
350.0,7,45.7035,0.396706,35.8333,1.54864e-05,1.69338,1.71942
350.0,7,45.7835,0.39605,44.6667,1.93039e-05,1.78907,1.6794
350.0,7,45.8635,0.395396,43.8333,1.89438e-05,1.78089,1.74453
350.0,7,45.9435,0.394745,61.5,2.65789e-05,1.92797,1.88729
350.0,7,46.0235,0.394096,101.833,4.40101e-05,2.14698,2.09094
350.0,7,46.1035,0.393449,178.667,7.72158e-05,2.39113,2.37285
350.0,7,46.1835,0.392805,463.5,0.000200314,2.80514,2.80242
350.0,7,46.2635,0.392163,4001.5,0.00172936,3.74131,3.69651
350.0,7,46.3435,0.391523,5728.33,0.00247566,3.89712,3.8676
350.0,7,46.4235,0.390886,464.5,0.000200747,2.80608,2.85962
350.0,7,46.5035,0.390251,168.667,7.2894e-05,2.36612,2.40524
350.0,7,46.5835,0.389618,86.1667,3.72393e-05,2.07443,2.10885
350.0,7,46.6635,0.388987,50.3333,2.1753e-05,1.84095,1.88865
350.0,7,46.7435,0.388358,32.5,1.40458e-05,1.65097,1.71344
350.0,7,46.8235,0.387732,26.3333,1.13807e-05,1.5596,1.56794
350.0,7,46.9035,0.387108,16.1667,6.98688e-06,1.34771,1.44355
350.0,7,46.9835,0.386486,13.3333,5.76237e-06,1.26403,1.33491
350.0,7,47.0635,0.385867,10.8333,4.68193e-06,1.17385,1.23849
350.0,7,47.1435,0.385249,10.0,4.32178e-06,1.13909,1.15181
350.0,7,47.2235,0.384634,6.5,2.80916e-06,0.952004,1.07308
350.0,7,47.3035,0.38402,6.66667,2.88119e-06,0.962999,1.00097
350.0,7,47.3835,0.383409,5.66667,2.44901e-06,0.892418,0.934442
350.0,7,47.4635,0.3828,4.33333,1.87277e-06,0.775912,0.872698
350.0,7,47.5435,0.382194,2.33333,1.00842e-06,0.507067,0.815094
350.0,7,47.6235,0.381589,2.5,1.08044e-06,0.53703,0.761109
350.0,7,47.7035,0.380986,1.66667,7.20297e-07,0.360939,0.710312
350.0,7,47.7835,0.380386,2.16667,9.36386e-07,0.474882,0.662349
27.0,1,44.0295,0.410996,0.6,1.56611e-07,-0.301751,0.241989
27.0,1,44.1095,0.410288,1.8,4.69832e-07,0.17537,0.271162
27.0,1,44.1895,0.409582,1.4,3.65425e-07,0.0662254,0.30136
27.0,1,44.2695,0.408879,1.8,4.69832e-07,0.17537,0.33266
27.0,1,44.3495,0.408179,2.2,5.74239e-07,0.26252,0.365146
27.0,1,44.4295,0.407481,1.0,2.61018e-07,-0.0799026,0.398915
27.0,1,44.5095,0.406786,1.6,4.17628e-07,0.124217,0.434077
27.0,1,44.5895,0.406093,3.4,8.8746e-07,0.451576,0.470758
27.0,1,44.6695,0.405403,2.2,5.74239e-07,0.26252,0.509101
27.0,1,44.7495,0.404715,2.8,7.30849e-07,0.367255,0.549275
27.0,1,44.8295,0.40403,2.0,5.22035e-07,0.221127,0.591479
27.0,1,44.9095,0.403347,2.6,6.78646e-07,0.335071,0.635955
27.0,1,44.9895,0.402667,2.6,6.78646e-07,0.335071,0.682998
27.0,1,45.0695,0.40199,6.2,1.61831e-06,0.712489,0.732988
27.0,1,45.1495,0.401315,7.0,1.82712e-06,0.765195,0.786496
27.0,1,45.2295,0.400642,8.2,2.14034e-06,0.833911,0.845161
27.0,1,45.3095,0.399972,10.2,2.66238e-06,0.928698,0.917063
27.0,1,45.3895,0.399304,9.8,2.55797e-06,0.911323,1.03138
27.0,1,45.4695,0.398638,17.6,4.59391e-06,1.16561,1.22592
27.0,1,45.5495,0.397975,37.6,9.81426e-06,1.49529,1.46534
27.0,1,45.6295,0.397315,58.8,1.53478e-05,1.68947,1.65599
27.0,1,45.7095,0.396657,62.0,1.61831e-05,1.71249,1.73145
27.0,1,45.7895,0.396001,60.4,1.57655e-05,1.70113,1.68746
27.0,1,45.8695,0.395347,41.6,1.08583e-05,1.53919,1.61772
27.0,1,45.9495,0.394696,42.2,1.10149e-05,1.54541,1.62741
27.0,1,46.0295,0.394048,72.6,1.89499e-05,1.78103,1.73435
27.0,1,46.1095,0.393401,110.6,2.88686e-05,1.96385,1.90075
27.0,1,46.1895,0.392757,164.4,4.29113e-05,2.136,2.11745
27.0,1,46.2695,0.392115,322.6,8.42043e-05,2.42876,2.40936
27.0,1,46.3495,0.391475,921.4,0.000240502,2.88455,2.85325
27.0,1,46.4295,0.390838,9116.2,0.00237949,3.87991,3.80559
27.0,1,46.5095,0.390203,8300.2,0.0021665,3.83919,3.79079
27.0,1,46.5895,0.38957,799.6,0.00020871,2.82297,2.84819
27.0,1,46.6695,0.38894,276.6,7.21975e-05,2.36195,2.40611
27.0,1,46.7495,0.388311,142.8,3.72733e-05,2.07483,2.11453
27.0,1,46.8295,0.387685,82.0,2.14034e-05,1.83391,1.89663
27.0,1,46.9095,0.387061,63.8,1.66529e-05,1.72492,1.72261
27.0,1,46.9895,0.38644,43.0,1.12238e-05,1.55357,1.57773
27.0,1,47.0695,0.38582,28.8,7.51731e-06,1.37949,1.45362
27.0,1,47.1495,0.385203,19.6,5.11595e-06,1.21235,1.34506
27.0,1,47.2295,0.384588,15.8,4.12408e-06,1.11875,1.24859
27.0,1,47.3095,0.383975,15.0,3.91526e-06,1.09619,1.16178
27.0,1,47.3895,0.383364,10.8,2.81899e-06,0.953521,1.08287
27.0,1,47.4695,0.382755,6.8,1.77492e-06,0.752606,1.01055
27.0,1,47.5495,0.382148,4.8,1.25288e-06,0.601339,0.943797
27.0,1,47.6295,0.381544,4.0,1.04407e-06,0.522157,0.881815
27.0,1,47.7095,0.380941,4.6,1.20068e-06,0.582855,0.823968
27.0,1,47.7895,0.380341,3.0,7.83053e-07,0.397219,0.769738
27.0,1,47.8695,0.379742,4.6,1.20068e-06,0.582855,0.718699
27.0,1,47.9495,0.379146,5.2,1.35729e-06,0.636101,0.670497
200.0,4,43.9513,0.411691,0.166667,6.89865e-08,-0.657808,0.295265
200.0,4,44.0313,0.41098,0.666667,2.75946e-07,-0.0557485,0.326166
200.0,4,44.1113,0.410272,1.66667,6.89865e-07,0.342192,0.358288
200.0,4,44.1913,0.409566,2.33333,9.65811e-07,0.48832,0.391742
200.0,4,44.2713,0.408863,2.33333,9.65811e-07,0.48832,0.426658
200.0,4,44.3513,0.408163,2.0,8.27838e-07,0.421373,0.463186
200.0,4,44.4313,0.407465,2.83333,1.17277e-06,0.57264,0.501505
200.0,4,44.5113,0.40677,2.16667,8.96824e-07,0.456135,0.54183
200.0,4,44.5913,0.406077,1.66667,6.89865e-07,0.342192,0.584422
200.0,4,44.6713,0.405387,3.16667,1.31074e-06,0.620945,0.629609
200.0,4,44.7513,0.4047,3.83333,1.58669e-06,0.703919,0.677803
200.0,4,44.8313,0.404015,3.66667,1.5177e-06,0.684614,0.729544
200.0,4,44.9113,0.403332,4.66667,1.93162e-06,0.78935,0.785552
200.0,4,44.9913,0.402652,3.16667,1.31074e-06,0.620945,0.846851
200.0,4,45.0713,0.401974,7.33333,3.03541e-06,0.985644,0.915136
200.0,4,45.1513,0.401299,8.83333,3.65628e-06,1.06647,0.994191
200.0,4,45.2313,0.400627,8.83333,3.65628e-06,1.06647,1.09361
200.0,4,45.3113,0.399957,14.5,6.00182e-06,1.28171,1.23059
200.0,4,45.3913,0.399289,17.6667,7.31257e-06,1.3675,1.41423
200.0,4,45.4713,0.398623,31.1667,1.29005e-05,1.61403,1.62327
200.0,4,45.5513,0.397961,50.1667,2.07649e-05,1.82076,1.81359
200.0,4,45.6313,0.3973,53.6667,2.22136e-05,1.85005,1.90297
200.0,4,45.7113,0.396642,53.0,2.19377e-05,1.84462,1.83929
200.0,4,45.7913,0.395986,38.8333,1.60738e-05,1.70955,1.74395
200.0,4,45.8713,0.395333,46.6667,1.93162e-05,1.78935,1.71701
200.0,4,45.9513,0.394682,52.5,2.17307e-05,1.8405,1.78419
200.0,4,46.0313,0.394033,67.5,2.79395e-05,1.94965,1.92776
200.0,4,46.1113,0.393387,103.167,4.27026e-05,2.13388,2.13632
200.0,4,46.1913,0.392742,182.0,7.53332e-05,2.38041,2.42971
200.0,4,46.2713,0.392101,569.333,0.000235658,2.87571,2.88778
200.0,4,46.3513,0.391461,7595.33,0.00314385,4.00089,3.92642
200.0,4,46.4313,0.390824,3997.5,0.00165464,3.72213,3.67446
200.0,4,46.5113,0.390189,462.333,0.000191368,2.7853,2.80272
200.0,4,46.5913,0.389556,168.667,6.98143e-05,2.34737,2.37662
200.0,4,46.6713,0.388926,85.6667,3.54591e-05,2.05315,2.09255
200.0,4,46.7513,0.388297,54.6667,2.26276e-05,1.85807,1.8793
200.0,4,46.8313,0.387671,34.6667,1.43492e-05,1.66025,1.70859
200.0,4,46.9113,0.387047,27.1667,1.12448e-05,1.55438,1.56627
200.0,4,46.9913,0.386426,17.0,7.03662e-06,1.35079,1.44425
200.0,4,47.0713,0.385806,14.1667,5.86385e-06,1.27161,1.33746
200.0,4,47.1513,0.385189,9.0,3.72527e-06,1.07459,1.24252
200.0,4,47.2313,0.384574,7.83333,3.24236e-06,1.01429,1.15707
200.0,4,47.3113,0.383961,7.16667,2.96642e-06,0.97566,1.07937
200.0,4,47.3913,0.38335,6.16667,2.5525e-06,0.910393,1.00814
200.0,4,47.4713,0.382741,3.83333,1.58669e-06,0.703919,0.942374
200.0,4,47.5513,0.382135,4.5,1.86263e-06,0.773555,0.881299
200.0,4,47.6313,0.38153,4.33333,1.79365e-06,0.757165,0.824286
200.0,4,47.7113,0.380928,4.0,1.65568e-06,0.722403,0.770827
200.0,4,47.7913,0.380327,3.0,1.24176e-06,0.597464,0.720503
200.0,4,47.8713,0.379729,3.0,1.24176e-06,0.597464,0.672967
250.0,5,43.9307,0.411875,1.5,6.76629e-07,0.333778,0.282005
250.0,5,44.0107,0.411163,2.0,9.02172e-07,0.458717,0.31287
250.0,5,44.0907,0.410454,1.16667,5.26267e-07,0.224634,0.344953
250.0,5,44.1707,0.409748,1.66667,7.5181e-07,0.379536,0.378366
250.0,5,44.2507,0.409044,1.66667,7.5181e-07,0.379536,0.413236
250.0,5,44.3307,0.408343,1.83333,8.26991e-07,0.420928,0.449714
250.0,5,44.4107,0.407645,2.5,1.12772e-06,0.555627,0.487981
250.0,5,44.4907,0.406949,2.5,1.12772e-06,0.555627,0.528252
250.0,5,44.5707,0.406255,3.5,1.5788e-06,0.701755,0.570791
250.0,5,44.6507,0.405565,4.16667,1.87953e-06,0.777476,0.615929
250.0,5,44.7307,0.404876,2.83333,1.27808e-06,0.609985,0.664087
250.0,5,44.8107,0.404191,4.33333,1.95471e-06,0.794509,0.715818
250.0,5,44.8907,0.403508,4.0,1.80434e-06,0.759747,0.771867
250.0,5,44.9707,0.402827,5.5,2.48097e-06,0.89805,0.833289
250.0,5,45.0507,0.402149,5.5,2.48097e-06,0.89805,0.901735
250.0,5,45.1307,0.401473,7.33333,3.30797e-06,1.02299,0.980708
250.0,5,45.2107,0.4008,8.16667,3.68387e-06,1.06973,1.08027
250.0,5,45.2907,0.400129,10.1667,4.58604e-06,1.16487,1.22337
250.0,5,45.3707,0.399461,14.8333,6.69111e-06,1.32893,1.42751
250.0,5,45.4507,0.398795,35.1667,1.58632e-05,1.70382,1.66394
250.0,5,45.5307,0.398131,49.3333,2.22536e-05,1.85083,1.86977
250.0,5,45.6107,0.39747,51.8333,2.33813e-05,1.8723,1.93828
250.0,5,45.6907,0.396811,44.0,1.98478e-05,1.80114,1.83564
250.0,5,45.7707,0.396155,32.8333,1.48107e-05,1.674,1.71955
250.0,5,45.8507,0.395501,36.0,1.62391e-05,1.71399,1.69355
250.0,5,45.9307,0.394849,42.8333,1.93215e-05,1.78947,1.77262
250.0,5,46.0107,0.3942,63.1667,2.84936e-05,1.95818,1.92503
250.0,5,46.0907,0.393553,92.8333,4.18758e-05,2.12539,2.13952
250.0,5,46.1707,0.392908,180.5,8.14211e-05,2.41416,2.44001
250.0,5,46.2507,0.392266,551.0,0.000248548,2.89884,2.91327
250.0,5,46.3307,0.391626,9544.33,0.00430532,4.13743,4.0385
250.0,5,46.4107,0.390988,2829.83,0.0012765,3.60945,3.58295
250.0,5,46.4907,0.390352,401.667,0.000181186,2.76155,2.76191
250.0,5,46.5707,0.389719,138.833,6.26258e-05,2.30018,2.34763
250.0,5,46.6507,0.389088,64.1667,2.89447e-05,1.965,2.06876
250.0,5,46.7307,0.388459,38.0,1.71413e-05,1.73747,1.8584
250.0,5,46.8107,0.387832,32.0,1.44348e-05,1.66284,1.6895
250.0,5,46.8907,0.387208,22.0,9.9239e-06,1.50011,1.54842
250.0,5,46.9707,0.386586,17.1667,7.74365e-06,1.39237,1.42729
250.0,5,47.0507,0.385966,9.16667,4.13496e-06,1.1199,1.32117
250.0,5,47.1307,0.385348,5.83333,2.63134e-06,0.923604,1.22674
250.0,5,47.2107,0.384732,5.83333,2.63134e-06,0.923604,1.14169
250.0,5,47.2907,0.384118,5.16667,2.33061e-06,0.870897,1.06432
250.0,5,47.3707,0.383507,3.16667,1.42844e-06,0.658289,0.993349
250.0,5,47.4507,0.382898,3.33333,1.50362e-06,0.680566,0.927806
250.0,5,47.5307,0.382291,4.0,1.80434e-06,0.759747,0.866915
250.0,5,47.6107,0.381686,1.83333,8.26991e-07,0.420928,0.810058
250.0,5,47.6907,0.381083,2.0,9.02172e-07,0.458717,0.756733
250.0,5,47.7707,0.380482,1.66667,7.5181e-07,0.379536,0.706525
250.0,5,47.8507,0.379883,0.833333,3.75905e-07,0.0785058,0.659088
450.0,9,43.8301,0.412773,0.833333,3.4923e-07,0.0465389,0.230201
450.0,9,43.9101,0.412058,2.0,8.38152e-07,0.42675,0.260563
450.0,9,43.9901,0.411346,0.833333,3.4923e-07,0.0465389,0.292078
450.0,9,44.0701,0.410636,2.16667,9.07998e-07,0.461512,0.324844
450.0,9,44.1501,0.409929,1.0,4.19076e-07,0.12572,0.358971
450.0,9,44.2301,0.409225,1.33333,5.58768e-07,0.250659,0.394592
450.0,9,44.3101,0.408523,2.83333,1.18738e-06,0.578018,0.431856
450.0,9,44.3901,0.407824,1.33333,5.58768e-07,0.250659,0.470945
450.0,9,44.4701,0.407128,1.33333,5.58768e-07,0.250659,0.512072
450.0,9,44.5501,0.406434,2.66667,1.11754e-06,0.551689,0.5555
450.0,9,44.6301,0.405742,3.83333,1.60646e-06,0.709297,0.601555
450.0,9,44.7101,0.405053,4.5,1.88584e-06,0.778933,0.650653
450.0,9,44.7901,0.404367,4.5,1.88584e-06,0.778933,0.703349
450.0,9,44.8701,0.403683,3.33333,1.39692e-06,0.648599,0.760512
450.0,9,44.9501,0.403002,4.33333,1.816e-06,0.762542,0.824148
450.0,9,45.0301,0.402323,4.83333,2.02553e-06,0.809967,0.900525
450.0,9,45.1101,0.401647,7.0,2.93353e-06,0.970818,1.0064
450.0,9,45.1901,0.400973,8.66667,3.63199e-06,1.06357,1.16582
450.0,9,45.2701,0.400301,17.1667,7.19413e-06,1.36041,1.37765
450.0,9,45.3501,0.399632,35.0,1.46677e-05,1.66979,1.59882
450.0,9,45.4301,0.398966,48.6667,2.0395e-05,1.81295,1.78051
450.0,9,45.5101,0.398302,50.3333,2.10935e-05,1.82758,1.88
450.0,9,45.5901,0.39764,53.8333,2.25602e-05,1.85677,1.8634
450.0,9,45.6701,0.396981,40.1667,1.68329e-05,1.72959,1.78449
450.0,9,45.7501,0.396324,42.5,1.78107e-05,1.75411,1.73176
450.0,9,45.8301,0.395669,48.8333,2.04649e-05,1.81444,1.7691
450.0,9,45.9101,0.395017,66.0,2.7659e-05,1.94526,1.90406
450.0,9,45.9901,0.394367,102.667,4.30251e-05,2.13715,2.11863
450.0,9,46.0701,0.393719,216.167,9.05902e-05,2.46051,2.42652
450.0,9,46.1501,0.393074,695.667,0.000291537,2.96812,2.91818
450.0,9,46.2301,0.392431,14195.2,0.00594885,4.27786,4.1639
450.0,9,46.3101,0.39179,2154.83,0.000903038,3.45913,3.46113
450.0,9,46.3901,0.391152,330.167,0.000138365,2.64445,2.69083
450.0,9,46.4701,0.390516,135.167,5.66451e-05,2.25659,2.28916
450.0,9,46.5501,0.389882,67.1667,2.81479e-05,1.95287,2.0159
450.0,9,46.6301,0.38925,45.8333,1.92076e-05,1.7869,1.80865
450.0,9,46.7101,0.388621,27.0,1.1315e-05,1.55708,1.6417
450.0,9,46.7901,0.387993,23.5,9.84828e-06,1.49679,1.50191
450.0,9,46.8701,0.387368,18.0,7.54336e-06,1.38099,1.38169
450.0,9,46.9501,0.386746,13.0,5.44799e-06,1.23966,1.27622
450.0,9,47.0301,0.386125,11.3333,4.74953e-06,1.18008,1.18228
450.0,9,47.1101,0.385507,9.0,3.77168e-06,1.07996,1.0976
450.0,9,47.1901,0.38489,6.0,2.51445e-06,0.903871,1.02051
450.0,9,47.2701,0.384276,3.83333,1.60646e-06,0.709297,0.949758
450.0,9,47.3501,0.383664,5.5,2.30492e-06,0.866083,0.884385
450.0,9,47.4301,0.383054,4.0,1.6763e-06,0.72778,0.823627
450.0,9,47.5101,0.382447,4.0,1.6763e-06,0.72778,0.766875
450.0,9,47.5901,0.381841,3.0,1.25723e-06,0.602841,0.713632
450.0,9,47.6701,0.381238,2.5,1.04769e-06,0.52366,0.663487
450.0,9,47.7501,0.380636,2.5,1.04769e-06,0.52366,0.6161
550.0,11,43.7863,0.413166,2.0,7.87017e-07,0.399412,0.189032
550.0,11,43.8663,0.412449,1.66667,6.55847e-07,0.32023,0.21895
550.0,11,43.9463,0.411736,1.33333,5.24678e-07,0.22332,0.249962
550.0,11,44.0263,0.411025,1.16667,4.59093e-07,0.165328,0.282154
550.0,11,44.1063,0.410316,2.83333,1.11494e-06,0.550679,0.315623
550.0,11,44.1863,0.40961,2.16667,8.52602e-07,0.434174,0.350481
550.0,11,44.2663,0.408907,1.83333,7.21432e-07,0.361623,0.386854
550.0,11,44.3463,0.408207,2.33333,9.18186e-07,0.466358,0.42489
550.0,11,44.4263,0.407509,2.0,7.87017e-07,0.399412,0.464761
550.0,11,44.5063,0.406813,2.16667,8.52602e-07,0.434174,0.506668
550.0,11,44.5863,0.40612,3.0,1.18053e-06,0.575503,0.550857
550.0,11,44.6663,0.40543,2.0,7.87017e-07,0.399412,0.597621
550.0,11,44.7463,0.404742,3.0,1.18053e-06,0.575503,0.647335
550.0,11,44.8263,0.404057,3.66667,1.44286e-06,0.662653,0.700515
550.0,11,44.9063,0.403375,4.66667,1.83637e-06,0.767388,0.758155
550.0,11,44.9863,0.402694,3.83333,1.50845e-06,0.681958,0.823116
550.0,11,45.0663,0.402017,7.5,2.95131e-06,0.973443,0.904141
550.0,11,45.1463,0.401341,7.16667,2.82014e-06,0.953699,1.02022
550.0,11,45.2263,0.400669,12.1667,4.78769e-06,1.18355,1.18949
550.0,11,45.3063,0.399998,19.6667,7.739e-06,1.39211,1.39881
550.0,11,45.3863,0.39933,41.0,1.61338e-05,1.71117,1.60461
550.0,11,45.4663,0.398665,44.1667,1.738e-05,1.74348,1.76704
550.0,11,45.5463,0.398002,53.6667,2.11183e-05,1.82809,1.85743
550.0,11,45.6263,0.397341,57.3333,2.25611e-05,1.85679,1.86135
550.0,11,45.7063,0.396683,52.3333,2.05936e-05,1.81716,1.82467
550.0,11,45.7863,0.396027,61.0,2.4004e-05,1.88371,1.82321
550.0,11,45.8663,0.395374,69.0,2.71521e-05,1.93723,1.91483
550.0,11,45.9463,0.394722,99.3333,3.90885e-05,2.09548,2.11246
550.0,11,46.0263,0.394073,235.667,9.27368e-05,2.47068,2.42291
550.0,11,46.1063,0.393427,870.333,0.000342483,3.03807,2.93365
550.0,11,46.1863,0.392783,27255.7,0.0107253,4.53384,4.35245
550.0,11,46.2663,0.392141,1964.83,0.000773178,3.39171,3.35507
550.0,11,46.3463,0.391501,286.667,0.000112806,2.55576,2.62886
550.0,11,46.4263,0.390864,102.167,4.02034e-05,2.10769,2.23906
550.0,11,46.5063,0.390228,62.1667,2.44631e-05,1.89194,1.97127
550.0,11,46.5863,0.389596,36.5,1.43631e-05,1.66067,1.76712
550.0,11,46.6663,0.388965,26.1667,1.02968e-05,1.51613,1.60213
550.0,11,46.7463,0.388337,19.6667,7.739e-06,1.39211,1.46368
550.0,11,46.8263,0.38771,15.0,5.90263e-06,1.27447,1.34441
550.0,11,46.9063,0.387086,10.0,3.93508e-06,1.09838,1.23965
550.0,11,46.9863,0.386465,10.1667,4.00067e-06,1.10556,1.14625
550.0,11,47.0663,0.385845,7.33333,2.88573e-06,0.963683,1.06198
550.0,11,47.1463,0.385227,5.33333,2.09871e-06,0.82538,0.98522
550.0,11,47.2263,0.384612,5.16667,2.03313e-06,0.811592,0.914731
550.0,11,47.3063,0.383999,6.66667,2.62339e-06,0.92229,0.849567
550.0,11,47.3863,0.383388,3.16667,1.24611e-06,0.598984,0.788979
550.0,11,47.4663,0.382779,5.0,1.96754e-06,0.797352,0.732365
550.0,11,47.5463,0.382172,2.83333,1.11494e-06,0.550679,0.679235
550.0,11,47.6263,0.381568,3.33333,1.31169e-06,0.62126,0.629184
550.0,11,47.7013,0.381003,2.0,7.87017e-07,0.399412,0.584757